%time,field.header.seq,field.header.stamp,field.header.frame_id,field.orientation.x,field.orientation.y,field.orientation.z,field.orientation.w,field.orientation_covariance0,field.orientation_covariance1,field.orientation_covariance2,field.orientation_covariance3,field.orientation_covariance4,field.orientation_covariance5,field.orientation_covariance6,field.orientation_covariance7,field.orientation_covariance8,field.angular_velocity.x,field.angular_velocity.y,field.angular_velocity.z,field.angular_velocity_covariance0,field.angular_velocity_covariance1,field.angular_velocity_covariance2,field.angular_velocity_covariance3,field.angular_velocity_covariance4,field.angular_velocity_covariance5,field.angular_velocity_covariance6,field.angular_velocity_covariance7,field.angular_velocity_covariance8,field.linear_acceleration.x,field.linear_acceleration.y,field.linear_acceleration.z,field.linear_acceleration_covariance0,field.linear_acceleration_covariance1,field.linear_acceleration_covariance2,field.linear_acceleration_covariance3,field.linear_acceleration_covariance4,field.linear_acceleration_covariance5,field.linear_acceleration_covariance6,field.linear_acceleration_covariance7,field.linear_acceleration_covariance8
1481797676454472989,85,1481797676313142672,,4.82429170609,-9.59314250946,-171.580459595,0.00939099956304,1.0,0.0,0.0,0.0,1.0,0.0,0.0,0.0,1.0,-2.25609779358,0.914634168148,2.19512200356,1.0,0.0,0.0,0.0,1.0,0.0,0.0,0.0,1.0,0.828393774414,-0.569819995117,10.180145459,1.0,0.0,0.0,0.0,1.0,0.0,0.0,0.0,1.0
1481797676454622570,86,1481797676355324552,,4.53445100784,-9.50481128693,-171.407272339,0.00116400001571,1.0,0.0,0.0,0.0,1.0,0.0,0.0,0.0,1.0,-2.19512200356,0.731707334518,2.13414645195,1.0,0.0,0.0,0.0,1.0,0.0,0.0,0.0,1.0,0.890643017578,-0.502782348633,10.1131078125,1.0,0.0,0.0,0.0,1.0,0.0,0.0,0.0,1.0
1481797676455599847,87,1481797676397657106,,4.24877595901,-9.4178609848,-171.232269287,0.00113500002772,1.0,0.0,0.0,0.0,1.0,0.0,0.0,0.0,1.0,-2.07317066193,0.853658556938,1.76829278469,1.0,0.0,0.0,0.0,1.0,0.0,0.0,0.0,1.0,0.756567724609,-0.598550451572,10.0173397461,1.0,0.0,0.0,0.0,1.0,0.0,0.0,0.0,1.0
1481797676455717085,88,1481797676439608208,,3.981320858,-9.33660507202,-171.06098938,0.00117800000589,1.0,0.0,0.0,0.0,1.0,0.0,0.0,0.0,1.0,-2.07317066193,0.731707334518,2.19512200356,1.0,0.0,0.0,0.0,1.0,0.0,0.0,0.0,1.0,0.809240161133,-0.560243188477,10.1466266357,1.0,0.0,0.0,0.0,1.0,0.0,0.0,0.0,1.0
1481797676487704115,89,1481797676481910502,,3.71499419212,-9.25905609131,-170.891952515,0.000969999993686,1.0,0.0,0.0,0.0,1.0,0.0,0.0,0.0,1.0,-2.25609779358,0.670731723309,1.95121955872,1.0,0.0,0.0,0.0,1.0,0.0,0.0,0.0,1.0,0.794874951172,-0.684741674805,10.1178962158,1.0,0.0,0.0,0.0,1.0,0.0,0.0,0.0,1.0
1481797676525361269,90,1481797676523917384,,3.46136331558,-9.18686294556,-170.725357056,0.000988999963738,1.0,0.0,0.0,0.0,1.0,0.0,0.0,0.0,1.0,-2.43902444839,0.487804889679,2.01219511032,1.0,0.0,0.0,0.0,1.0,0.0,0.0,0.0,1.0,0.675164868164,-0.636857641602,10.1945106689,1.0,0.0,0.0,0.0,1.0,0.0,0.0,0.0,1.0
1481797676567777728,91,1481797676566771233,,3.21621227264,-9.11370754242,-170.55531311,0.00103299994953,1.0,0.0,0.0,0.0,1.0,0.0,0.0,0.0,1.0,-2.37804889679,0.670731723309,1.95121955872,1.0,0.0,0.0,0.0,1.0,0.0,0.0,0.0,1.0,0.675164868164,-0.579396801758,10.0748005859,1.0,0.0,0.0,0.0,1.0,0.0,0.0,0.0,1.0
1481797676610586682,92,1481797676608623169,,2.98632359505,-9.04557228088,-170.389068604,0.000959000026342,1.0,0.0,0.0,0.0,1.0,0.0,0.0,0.0,1.0,-2.25609779358,0.792682945728,1.8902438879,1.0,0.0,0.0,0.0,1.0,0.0,0.0,0.0,1.0,0.837970581055,-0.593762048251,10.0221281494,1.0,0.0,0.0,0.0,1.0,0.0,0.0,0.0,1.0
1481797676654560514,93,1481797676651436185,,2.76335144043,-8.98380279541,-170.221679688,0.00118799996562,1.0,0.0,0.0,0.0,1.0,0.0,0.0,0.0,1.0,-2.19512200356,0.670731723309,2.01219511032,1.0,0.0,0.0,0.0,1.0,0.0,0.0,0.0,1.0,0.962469067383,-0.612915625,10.1609918457,1.0,0.0,0.0,0.0,1.0,0.0,0.0,0.0,1.0
1481797676695507724,94,1481797676693245570,,2.55423951149,-8.92813968658,-170.059677124,0.00148300000001,1.0,0.0,0.0,0.0,1.0,0.0,0.0,0.0,1.0,-2.13414645195,0.792682945728,1.8902438879,1.0,0.0,0.0,0.0,1.0,0.0,0.0,0.0,1.0,0.809240161133,-0.627280834961,10.0795889893,1.0,0.0,0.0,0.0,1.0,0.0,0.0,0.0,1.0
1481797676736869043,95,1481797676735457085,,2.34861397743,-8.87119960785,-169.896240234,0.00100599997677,1.0,0.0,0.0,0.0,1.0,0.0,0.0,0.0,1.0,-2.13414645195,0.487804889679,2.07317066193,1.0,0.0,0.0,0.0,1.0,0.0,0.0,0.0,1.0,0.809240161133,-0.579396801758,10.1609918457,1.0,0.0,0.0,0.0,1.0,0.0,0.0,0.0,1.0
1481797676779286856,96,1481797676777821357,,2.15645956993,-8.81654262543,-169.733108521,0.000987999956124,1.0,0.0,0.0,0.0,1.0,0.0,0.0,0.0,1.0,-2.13414645195,0.609756112099,1.76829278469,1.0,0.0,0.0,0.0,1.0,0.0,0.0,0.0,1.0,0.852335791016,-0.612915625,10.0364933594,1.0,0.0,0.0,0.0,1.0,0.0,0.0,0.0,1.0
1481797676820849943,97,1481797676819349392,,1.9659178257,-8.76246547699,-169.573883057,0.00102399999741,1.0,0.0,0.0,0.0,1.0,0.0,0.0,0.0,1.0,-2.37804889679,0.731707334518,2.13414645195,1.0,0.0,0.0,0.0,1.0,0.0,0.0,0.0,1.0,0.857124194336,-0.560243188477,10.1418382324,1.0,0.0,0.0,0.0,1.0,0.0,0.0,0.0,1.0
1481797676862811409,98,1481797676861406846,,1.78616046906,-8.71611022949,-169.415390015,0.00101899995934,1.0,0.0,0.0,0.0,1.0,0.0,0.0,0.0,1.0,-2.13414645195,0.853658556938,2.07317066193,1.0,0.0,0.0,0.0,1.0,0.0,0.0,0.0,1.0,0.871489404297,-0.622492431641,10.2136642822,1.0,0.0,0.0,0.0,1.0,0.0,0.0,0.0,1.0
1481797676905982128,99,1481797676903840285,,1.6132184267,-8.66582965851,-169.255264282,0.00097499997355,1.0,0.0,0.0,0.0,1.0,0.0,0.0,0.0,1.0,-2.19512200356,0.731707334518,1.8902438879,1.0,0.0,0.0,0.0,1.0,0.0,0.0,0.0,1.0,0.60812722168,-0.632069238281,10.2663367187,1.0,0.0,0.0,0.0,1.0,0.0,0.0,0.0,1.0
1481797676947578912,100,1481797676946040393,,1.44606363773,-8.62303733826,-169.09475708,0.000996000017039,1.0,0.0,0.0,0.0,1.0,0.0,0.0,0.0,1.0,-2.19512200356,0.670731723309,2.01219511032,1.0,0.0,0.0,0.0,1.0,0.0,0.0,0.0,1.0,0.828393774414,-0.76135612793,10.0317049561,1.0,0.0,0.0,0.0,1.0,0.0,0.0,0.0,1.0
1481797676991622899,101,1481797676988541643,,1.28375136852,-8.57850170135,-168.936386108,0.000959999975748,1.0,0.0,0.0,0.0,1.0,0.0,0.0,0.0,1.0,-2.01219511032,0.792682945728,1.70731711388,1.0,0.0,0.0,0.0,1.0,0.0,0.0,0.0,1.0,0.842758984375,-0.632069238281,10.0891657959,1.0,0.0,0.0,0.0,1.0,0.0,0.0,0.0,1.0
1481797677034447009,102,1481797677031000549,,1.12994527817,-8.54129695892,-168.778030396,0.00100399996154,1.0,0.0,0.0,0.0,1.0,0.0,0.0,0.0,1.0,-2.37804889679,0.914634168148,1.8902438879,1.0,0.0,0.0,0.0,1.0,0.0,0.0,0.0,1.0,0.972045874023,-0.670376464844,10.3429511719,1.0,0.0,0.0,0.0,1.0,0.0,0.0,0.0,1.0
1481797677075260836,103,1481797677073564246,,0.972492218018,-8.49833869934,-168.619064331,0.00121100002434,1.0,0.0,0.0,0.0,1.0,0.0,0.0,0.0,1.0,-2.01219511032,0.609756112099,1.95121955872,1.0,0.0,0.0,0.0,1.0,0.0,0.0,0.0,1.0,0.847547387695,-0.536301208408,10.2567599121,1.0,0.0,0.0,0.0,1.0,0.0,0.0,0.0,1.0
1481797677117573442,104,1481797677115733209,,0.832074940205,-8.46509170532,-168.460418701,0.00102099997457,1.0,0.0,0.0,0.0,1.0,0.0,0.0,0.0,1.0,-2.13414645195,0.975609779358,2.01219511032,1.0,0.0,0.0,0.0,1.0,0.0,0.0,0.0,1.0,0.847547387695,-0.560243188477,10.1131078125,1.0,0.0,0.0,0.0,1.0,0.0,0.0,0.0,1.0
1481797677160201982,105,1481797677158290760,,0.699929893017,-8.43594837189,-168.303146362,0.00102399999741,1.0,0.0,0.0,0.0,1.0,0.0,0.0,0.0,1.0,-2.13414645195,0.792682945728,1.95121955872,1.0,0.0,0.0,0.0,1.0,0.0,0.0,0.0,1.0,0.814028564453,-0.622492431641,10.1035310059,1.0,0.0,0.0,0.0,1.0,0.0,0.0,0.0,1.0
1481797677203068747,106,1481797677201047579,,0.5663869977,-8.40924835205,-168.14680481,0.00115499994718,1.0,0.0,0.0,0.0,1.0,0.0,0.0,0.0,1.0,-2.37804889679,0.914634168148,2.07317066193,1.0,0.0,0.0,0.0,1.0,0.0,0.0,0.0,1.0,0.799663354492,-0.541089611728,10.1226846191,1.0,0.0,0.0,0.0,1.0,0.0,0.0,0.0,1.0
1481797677244736520,107,1481797677242900036,,0.445129662752,-8.38175296783,-167.994384766,0.00104100001045,1.0,0.0,0.0,0.0,1.0,0.0,0.0,0.0,1.0,-2.5,0.609756112099,2.01219511032,1.0,0.0,0.0,0.0,1.0,0.0,0.0,0.0,1.0,0.828393774414,-0.632069238281,10.2663367187,1.0,0.0,0.0,0.0,1.0,0.0,0.0,0.0,1.0
1481797677286762047,108,1481797677284940199,,0.325066387653,-8.3549861908,-167.840606689,0.00101100001484,1.0,0.0,0.0,0.0,1.0,0.0,0.0,0.0,1.0,-2.37804889679,0.792682945728,1.70731711388,1.0,0.0,0.0,0.0,1.0,0.0,0.0,0.0,1.0,0.76614453125,-0.555454785156,9.95987890625,1.0,0.0,0.0,0.0,1.0,0.0,0.0,0.0,1.0
1481797677329787664,109,1481797677327222390,,0.203210398555,-8.33380699158,-167.686889648,0.00101600005291,1.0,0.0,0.0,0.0,1.0,0.0,0.0,0.0,1.0,-2.07317066193,0.792682945728,1.8902438879,1.0,0.0,0.0,0.0,1.0,0.0,0.0,0.0,1.0,0.885854614258,-0.502782348633,10.1274730225,1.0,0.0,0.0,0.0,1.0,0.0,0.0,0.0,1.0
1481797677375247516,110,1481797677371440958,,0.0892518758774,-8.30940437317,-167.534088135,0.00102800002787,1.0,0.0,0.0,0.0,1.0,0.0,0.0,0.0,1.0,-2.25609779358,0.914634168148,1.64634156227,1.0,0.0,0.0,0.0,1.0,0.0,0.0,0.0,1.0,0.981622680664,-0.651222851562,10.1514150391,1.0,0.0,0.0,0.0,1.0,0.0,0.0,0.0,1.0
1481797677413404038,111,1481797677411566149,,-0.017501719296,-8.28660202026,-167.38168335,0.00125800003298,1.0,0.0,0.0,0.0,1.0,0.0,0.0,0.0,1.0,-2.25609779358,0.670731723309,1.95121955872,1.0,0.0,0.0,0.0,1.0,0.0,0.0,0.0,1.0,1.00077629395,-0.593762048251,10.165780249,1.0,0.0,0.0,0.0,1.0,0.0,0.0,0.0,1.0
1481797677456581060,112,1481797677454280937,,-0.12028516084,-8.2598733902,-167.226455688,0.0025579999201,1.0,0.0,0.0,0.0,1.0,0.0,0.0,0.0,1.0,-2.25609779358,0.853658556938,1.8902438879,1.0,0.0,0.0,0.0,1.0,0.0,0.0,0.0,1.0,0.737414111328,-0.474051928711,10.2232410889,1.0,0.0,0.0,0.0,1.0,0.0,0.0,0.0,1.0
1481797677498910072,113,1481797677497019423,,-0.222152143717,-8.24110031128,-167.071304321,0.00209899991751,1.0,0.0,0.0,0.0,1.0,0.0,0.0,0.0,1.0,-2.13414645195,0.731707334518,1.8292683363,1.0,0.0,0.0,0.0,1.0,0.0,0.0,0.0,1.0,0.890643017578,-0.569819995117,10.3237975586,1.0,0.0,0.0,0.0,1.0,0.0,0.0,0.0,1.0
1481797677541251637,114,1481797677539372967,,-0.31591758132,-8.22088432312,-166.918609619,0.00110999995377,1.0,0.0,0.0,0.0,1.0,0.0,0.0,0.0,1.0,-2.43902444839,0.853658556938,1.8902438879,1.0,0.0,0.0,0.0,1.0,0.0,0.0,0.0,1.0,0.818816967773,-0.689530078125,10.2471831055,1.0,0.0,0.0,0.0,1.0,0.0,0.0,0.0,1.0
1481797677583510338,115,1481797677581924632,,-0.407077461481,-8.20544433594,-166.764846802,0.00106799998321,1.0,0.0,0.0,0.0,1.0,0.0,0.0,0.0,1.0,-2.13414645195,0.914634168148,2.07317066193,1.0,0.0,0.0,0.0,1.0,0.0,0.0,0.0,1.0,0.885854614258,-0.603338854892,10.1274730225,1.0,0.0,0.0,0.0,1.0,0.0,0.0,0.0,1.0
1481797677625614458,116,1481797677623572770,,-0.498831987381,-8.19067668915,-166.613265991,0.00103100005072,1.0,0.0,0.0,0.0,1.0,0.0,0.0,0.0,1.0,-2.31707310677,0.609756112099,2.01219511032,1.0,0.0,0.0,0.0,1.0,0.0,0.0,0.0,1.0,0.76135612793,-0.603338854892,10.0556469727,1.0,0.0,0.0,0.0,1.0,0.0,0.0,0.0,1.0
1481797677668183415,117,1481797677666350942,,-0.582300305367,-8.17202854156,-166.460144043,0.00106299994513,1.0,0.0,0.0,0.0,1.0,0.0,0.0,0.0,1.0,-2.19512200356,0.914634168148,1.8902438879,1.0,0.0,0.0,0.0,1.0,0.0,0.0,0.0,1.0,0.828393774414,-0.60812722168,10.1992990723,1.0,0.0,0.0,0.0,1.0,0.0,0.0,0.0,1.0
1481797677710580865,118,1481797677709061564,,-0.663447856903,-8.1531867981,-166.305908203,0.00115499994718,1.0,0.0,0.0,0.0,1.0,0.0,0.0,0.0,1.0,-2.19512200356,0.792682945728,2.01219511032,1.0,0.0,0.0,0.0,1.0,0.0,0.0,0.0,1.0,0.723048901367,-0.478840332031,10.1226846191,1.0,0.0,0.0,0.0,1.0,0.0,0.0,0.0,1.0
1481797677758870519,119,1481797677753262580,,-0.741539657116,-8.13573646545,-166.156219482,0.00111099996138,1.0,0.0,0.0,0.0,1.0,0.0,0.0,0.0,1.0,-2.37804889679,0.853658556938,2.01219511032,1.0,0.0,0.0,0.0,1.0,0.0,0.0,0.0,1.0,0.986411083984,-0.636857641602,10.2519715088,1.0,0.0,0.0,0.0,1.0,0.0,0.0,0.0,1.0
1481797677794844208,120,1481797677793817765,,-0.820810616016,-8.1163520813,-166.003387451,0.00126100005582,1.0,0.0,0.0,0.0,1.0,0.0,0.0,0.0,1.0,-2.13414645195,0.853658556938,2.01219511032,1.0,0.0,0.0,0.0,1.0,0.0,0.0,0.0,1.0,0.790086547852,-0.526724328702,10.0700121826,1.0,0.0,0.0,0.0,1.0,0.0,0.0,0.0,1.0
1481797677837420822,121,1481797677836452659,,-0.890244364738,-8.09765720367,-165.850021362,0.00124300003517,1.0,0.0,0.0,0.0,1.0,0.0,0.0,0.0,1.0,-2.13414645195,0.609756112099,1.95121955872,1.0,0.0,0.0,0.0,1.0,0.0,0.0,0.0,1.0,0.876277807617,-0.541089611728,10.1609918457,1.0,0.0,0.0,0.0,1.0,0.0,0.0,0.0,1.0
1481797677879833323,122,1481797677878805057,,-0.95702457428,-8.08661842346,-165.698928833,0.00104000000283,1.0,0.0,0.0,0.0,1.0,0.0,0.0,0.0,1.0,-2.19512200356,0.853658556938,1.52439022064,1.0,0.0,0.0,0.0,1.0,0.0,0.0,0.0,1.0,0.809240161133,-0.526724328702,9.97424411621,1.0,0.0,0.0,0.0,1.0,0.0,0.0,0.0,1.0
1481797677921783383,123,1481797677920509547,,-1.02285170555,-8.0725107193,-165.546035767,0.00102700002026,1.0,0.0,0.0,0.0,1.0,0.0,0.0,0.0,1.0,-1.8902438879,0.670731723309,1.95121955872,1.0,0.0,0.0,0.0,1.0,0.0,0.0,0.0,1.0,0.847547387695,-0.536301208408,10.0077629395,1.0,0.0,0.0,0.0,1.0,0.0,0.0,0.0,1.0
1481797677963549904,124,1481797677962387942,,-1.0878418684,-8.06276416779,-165.396194458,0.00134600000456,1.0,0.0,0.0,0.0,1.0,0.0,0.0,0.0,1.0,-2.19512200356,0.853658556938,1.8292683363,1.0,0.0,0.0,0.0,1.0,0.0,0.0,0.0,1.0,0.871489404297,-0.526724328702,10.2088758789,1.0,0.0,0.0,0.0,1.0,0.0,0.0,0.0,1.0
1481797678006566198,125,1481797678005016846,,-1.14616644382,-8.05458831787,-165.243133545,0.00103199994192,1.0,0.0,0.0,0.0,1.0,0.0,0.0,0.0,1.0,-2.13414645195,0.853658556938,2.01219511032,1.0,0.0,0.0,0.0,1.0,0.0,0.0,0.0,1.0,0.876277807617,-0.584185168546,10.2136642822,1.0,0.0,0.0,0.0,1.0,0.0,0.0,0.0,1.0
1481797678048648600,126,1481797678047110445,,-1.20634555817,-8.0444278717,-165.093978882,0.0010300000431,1.0,0.0,0.0,0.0,1.0,0.0,0.0,0.0,1.0,-2.19512200356,0.853658556938,1.95121955872,1.0,0.0,0.0,0.0,1.0,0.0,0.0,0.0,1.0,0.866701000977,-0.565031591797,10.2376062988,1.0,0.0,0.0,0.0,1.0,0.0,0.0,0.0,1.0
1481797678090143302,127,1481797678089057484,,-1.25865256786,-8.03472805023,-164.945327759,0.000962999998592,1.0,0.0,0.0,0.0,1.0,0.0,0.0,0.0,1.0,-2.07317066193,0.731707334518,1.8902438879,1.0,0.0,0.0,0.0,1.0,0.0,0.0,0.0,1.0,0.828393774414,-0.426167895508,10.165780249,1.0,0.0,0.0,0.0,1.0,0.0,0.0,0.0,1.0
1481797678133235324,128,1481797678132057946,,-1.31298649311,-8.02716636658,-164.795516968,0.00104899995495,1.0,0.0,0.0,0.0,1.0,0.0,0.0,0.0,1.0,-2.07317066193,0.792682945728,1.95121955872,1.0,0.0,0.0,0.0,1.0,0.0,0.0,0.0,1.0,0.972045874023,-0.531512805087,9.96466730957,1.0,0.0,0.0,0.0,1.0,0.0,0.0,0.0,1.0
1481797678179840107,129,1481797678174292116,,-1.3622918129,-8.0194272995,-164.645111084,0.00131700001657,1.0,0.0,0.0,0.0,1.0,0.0,0.0,0.0,1.0,-2.19512200356,0.853658556938,1.8902438879,1.0,0.0,0.0,0.0,1.0,0.0,0.0,0.0,1.0,0.751779321289,-0.488417138672,10.1945106689,1.0,0.0,0.0,0.0,1.0,0.0,0.0,0.0,1.0
1481797678217137527,130,1481797678216046241,,-1.41075742245,-8.0135383606,-164.497085571,0.00108299998101,1.0,0.0,0.0,0.0,1.0,0.0,0.0,0.0,1.0,-2.43902444839,0.914634168148,1.8902438879,1.0,0.0,0.0,0.0,1.0,0.0,0.0,0.0,1.0,0.905008227539,-0.584185168546,9.96466730957,1.0,0.0,0.0,0.0,1.0,0.0,0.0,0.0,1.0
1481797678260961049,131,1481797678258250673,,-1.45651388168,-8.00464630127,-164.348312378,0.00109899998643,1.0,0.0,0.0,0.0,1.0,0.0,0.0,0.0,1.0,-2.13414645195,0.731707334518,1.95121955872,1.0,0.0,0.0,0.0,1.0,0.0,0.0,0.0,1.0,0.948103857422,-0.579396801758,10.0556469727,1.0,0.0,0.0,0.0,1.0,0.0,0.0,0.0,1.0
1481797678303274958,132,1481797678300586560,,-1.50602626801,-7.99706792831,-164.199279785,0.00106599996798,1.0,0.0,0.0,0.0,1.0,0.0,0.0,0.0,1.0,-2.19512200356,0.914634168148,1.8902438879,1.0,0.0,0.0,0.0,1.0,0.0,0.0,0.0,1.0,0.794874951172,-0.507570751953,10.1226846191,1.0,0.0,0.0,0.0,1.0,0.0,0.0,0.0,1.0
1481797678344462633,133,1481797678342975155,,-1.55037879944,-7.98782110214,-164.048065186,0.00116700003855,1.0,0.0,0.0,0.0,1.0,0.0,0.0,0.0,1.0,-2.07317066193,0.975609779358,1.95121955872,1.0,0.0,0.0,0.0,1.0,0.0,0.0,0.0,1.0,0.837970581055,-0.641646044922,10.2663367187,1.0,0.0,0.0,0.0,1.0,0.0,0.0,0.0,1.0
1481797678387302420,134,1481797678384865633,,-1.59621405602,-7.9807600975,-163.90020752,0.000972000008915,1.0,0.0,0.0,0.0,1.0,0.0,0.0,0.0,1.0,-2.01219511032,0.792682945728,1.8902438879,1.0,0.0,0.0,0.0,1.0,0.0,0.0,0.0,1.0,0.780509741211,-0.550666381836,9.95509050293,1.0,0.0,0.0,0.0,1.0,0.0,0.0,0.0,1.0
1481797678428362128,135,1481797678427352143,,-1.63896477222,-7.97003030777,-163.751113892,0.000983000034466,1.0,0.0,0.0,0.0,1.0,0.0,0.0,0.0,1.0,-2.13414645195,0.609756112099,2.19512200356,1.0,0.0,0.0,0.0,1.0,0.0,0.0,0.0,1.0,0.842758984375,-0.541089611728,10.060435376,1.0,0.0,0.0,0.0,1.0,0.0,0.0,0.0,1.0
1481797678474107862,136,1481797678469578345,,-1.67883098125,-7.96260929108,-163.604537964,0.00103599997237,1.0,0.0,0.0,0.0,1.0,0.0,0.0,0.0,1.0,-2.07317066193,0.670731723309,2.19512200356,1.0,0.0,0.0,0.0,1.0,0.0,0.0,0.0,1.0,0.823605371094,-0.474051928711,10.060435376,1.0,0.0,0.0,0.0,1.0,0.0,0.0,0.0,1.0
1481797678515256058,137,1481797678512207197,,-1.71399593353,-7.95410346985,-163.458831787,0.00107999995816,1.0,0.0,0.0,0.0,1.0,0.0,0.0,0.0,1.0,-2.19512200356,1.03658533096,1.8292683363,1.0,0.0,0.0,0.0,1.0,0.0,0.0,0.0,1.0,0.881066210937,-0.574608398438,9.93593688965,1.0,0.0,0.0,0.0,1.0,0.0,0.0,0.0,1.0
1481797678554702822,138,1481797678553420966,,-1.74617230892,-7.9461479187,-163.312454224,0.00141400005668,1.0,0.0,0.0,0.0,1.0,0.0,0.0,0.0,1.0,-2.25609779358,0.975609779358,1.8902438879,1.0,0.0,0.0,0.0,1.0,0.0,0.0,0.0,1.0,0.842758984375,-0.497993945312,10.2040874756,1.0,0.0,0.0,0.0,1.0,0.0,0.0,0.0,1.0
1481797678601084067,139,1481797678596150650,,-1.78070473671,-7.93845367432,-163.162353516,0.00122700002976,1.0,0.0,0.0,0.0,1.0,0.0,0.0,0.0,1.0,-2.25609779358,0.853658556938,1.70731711388,1.0,0.0,0.0,0.0,1.0,0.0,0.0,0.0,1.0,0.842758984375,-0.60812722168,10.0748005859,1.0,0.0,0.0,0.0,1.0,0.0,0.0,0.0,1.0
1481797678639520845,140,1481797678638157844,,-1.81737494469,-7.93178081512,-163.015090942,0.00105199997779,1.0,0.0,0.0,0.0,1.0,0.0,0.0,0.0,1.0,-2.19512200356,0.792682945728,2.01219511032,1.0,0.0,0.0,0.0,1.0,0.0,0.0,0.0,1.0,0.885854614258,-0.579396801758,10.0652237793,1.0,0.0,0.0,0.0,1.0,0.0,0.0,0.0,1.0
1481797678681536894,141,1481797678679994104,,-1.84672260284,-7.9301609993,-162.86958313,0.00101799995173,1.0,0.0,0.0,0.0,1.0,0.0,0.0,0.0,1.0,-2.31707310677,0.731707334518,1.76829278469,1.0,0.0,0.0,0.0,1.0,0.0,0.0,0.0,1.0,0.895431420898,-0.555454785156,10.2040874756,1.0,0.0,0.0,0.0,1.0,0.0,0.0,0.0,1.0
1481797678723668045,142,1481797678722279836,,-1.88085532188,-7.92755460739,-162.721862793,0.00117900001351,1.0,0.0,0.0,0.0,1.0,0.0,0.0,0.0,1.0,-2.31707310677,0.548780500889,1.8902438879,1.0,0.0,0.0,0.0,1.0,0.0,0.0,0.0,1.0,0.804451757813,-0.598550451572,9.95509050293,1.0,0.0,0.0,0.0,1.0,0.0,0.0,0.0,1.0
1481797678765742321,143,1481797678764336405,,-1.90947139263,-7.92445755005,-162.573928833,0.00108199997339,1.0,0.0,0.0,0.0,1.0,0.0,0.0,0.0,1.0,-2.13414645195,0.792682945728,1.8902438879,1.0,0.0,0.0,0.0,1.0,0.0,0.0,0.0,1.0,0.857124194336,-0.392649072266,10.1274730225,1.0,0.0,0.0,0.0,1.0,0.0,0.0,0.0,1.0
1481797678807901701,144,1481797678806619741,,-1.93372857571,-7.92406749725,-162.42729187,0.00104100001045,1.0,0.0,0.0,0.0,1.0,0.0,0.0,0.0,1.0,-2.07317066193,0.853658556938,1.95121955872,1.0,0.0,0.0,0.0,1.0,0.0,0.0,0.0,1.0,0.713472094727,-0.574608398438,10.0317049561,1.0,0.0,0.0,0.0,1.0,0.0,0.0,0.0,1.0
1481797678849899469,145,1481797678848401991,,-1.95858764648,-7.91696357727,-162.281387329,0.00102900003549,1.0,0.0,0.0,0.0,1.0,0.0,0.0,0.0,1.0,-2.43902444839,0.548780500889,1.8292683363,1.0,0.0,0.0,0.0,1.0,0.0,0.0,0.0,1.0,1.01514150391,-0.598550451572,10.0364933594,1.0,0.0,0.0,0.0,1.0,0.0,0.0,0.0,1.0
1481797678891987131,146,1481797678890193043,,-1.98502719402,-7.91417789459,-162.136291504,0.00105199997779,1.0,0.0,0.0,0.0,1.0,0.0,0.0,0.0,1.0,-2.31707310677,0.548780500889,1.58536589146,1.0,0.0,0.0,0.0,1.0,0.0,0.0,0.0,1.0,0.962469067383,-0.574608398438,10.2088758789,1.0,0.0,0.0,0.0,1.0,0.0,0.0,0.0,1.0
1481797678934287342,147,1481797678932984861,,-2.01119709015,-7.90949344635,-161.990493774,0.00130999996327,1.0,0.0,0.0,0.0,1.0,0.0,0.0,0.0,1.0,-2.37804889679,0.670731723309,1.8902438879,1.0,0.0,0.0,0.0,1.0,0.0,0.0,0.0,1.0,0.842758984375,-0.61770402832,10.1035310059,1.0,0.0,0.0,0.0,1.0,0.0,0.0,0.0,1.0
1481797678976083967,148,1481797678974725028,,-2.02772164345,-7.90441894531,-161.843475342,0.00144000002183,1.0,0.0,0.0,0.0,1.0,0.0,0.0,0.0,1.0,-2.25609779358,0.792682945728,2.13414645195,1.0,0.0,0.0,0.0,1.0,0.0,0.0,0.0,1.0,0.780509741211,-0.521935925381,10.0939541992,1.0,0.0,0.0,0.0,1.0,0.0,0.0,0.0,1.0
1481797679033055472,149,1481797679016605923,,-2.04894709587,-7.89585256577,-161.697753906,0.00103199994192,1.0,0.0,0.0,0.0,1.0,0.0,0.0,0.0,1.0,-1.95121955872,0.853658556938,1.70731711388,1.0,0.0,0.0,0.0,1.0,0.0,0.0,0.0,1.0,0.746990917969,-0.521935925381,10.1274730225,1.0,0.0,0.0,0.0,1.0,0.0,0.0,0.0,1.0
1481797679061020113,150,1481797679059426595,,-2.06880569458,-7.88484621048,-161.545730591,0.00115000002552,1.0,0.0,0.0,0.0,1.0,0.0,0.0,0.0,1.0,-2.37804889679,0.792682945728,1.95121955872,1.0,0.0,0.0,0.0,1.0,0.0,0.0,0.0,1.0,0.804451757813,-0.632069238281,10.3621047852,1.0,0.0,0.0,0.0,1.0,0.0,0.0,0.0,1.0
1481797679102619709,151,1481797679101537955,,-2.08753561974,-7.88330984116,-161.399917603,0.00107400002889,1.0,0.0,0.0,0.0,1.0,0.0,0.0,0.0,1.0,-2.31707310677,0.914634168148,1.95121955872,1.0,0.0,0.0,0.0,1.0,0.0,0.0,0.0,1.0,0.895431420898,-0.622492431641,10.0891657959,1.0,0.0,0.0,0.0,1.0,0.0,0.0,0.0,1.0
1481797679146377764,152,1481797679143990507,,-2.10869550705,-7.87897253036,-161.249008179,0.00103699997999,1.0,0.0,0.0,0.0,1.0,0.0,0.0,0.0,1.0,-2.25609779358,0.792682945728,1.95121955872,1.0,0.0,0.0,0.0,1.0,0.0,0.0,0.0,1.0,0.732625708008,-0.488417138672,10.060435376,1.0,0.0,0.0,0.0,1.0,0.0,0.0,0.0,1.0
1481797679188981772,153,1481797679186189886,,-2.12096428871,-7.88225364685,-161.102172852,0.00109000003431,1.0,0.0,0.0,0.0,1.0,0.0,0.0,0.0,1.0,-2.25609779358,0.853658556938,1.8292683363,1.0,0.0,0.0,0.0,1.0,0.0,0.0,0.0,1.0,0.837970581055,-0.756567724609,10.0556469727,1.0,0.0,0.0,0.0,1.0,0.0,0.0,0.0,1.0
1481797679229163785,154,1481797679227714536,,-2.13738870621,-7.88063144684,-160.957885742,0.00106799998321,1.0,0.0,0.0,0.0,1.0,0.0,0.0,0.0,1.0,-2.07317066193,0.853658556938,2.01219511032,1.0,0.0,0.0,0.0,1.0,0.0,0.0,0.0,1.0,0.885854614258,-0.603338854892,10.3237975586,1.0,0.0,0.0,0.0,1.0,0.0,0.0,0.0,1.0
1481797679271924823,155,1481797679270430001,,-2.1557161808,-7.88419961929,-160.810317993,0.00110100000165,1.0,0.0,0.0,0.0,1.0,0.0,0.0,0.0,1.0,-2.31707310677,0.853658556938,1.76829278469,1.0,0.0,0.0,0.0,1.0,0.0,0.0,0.0,1.0,0.828393774414,-0.794874951172,10.3285859619,1.0,0.0,0.0,0.0,1.0,0.0,0.0,0.0,1.0
1481797679315310122,156,1481797679313319422,,-2.17355203629,-7.88121986389,-160.663986206,0.00139099999797,1.0,0.0,0.0,0.0,1.0,0.0,0.0,0.0,1.0,-2.13414645195,0.792682945728,1.8292683363,1.0,0.0,0.0,0.0,1.0,0.0,0.0,0.0,1.0,0.689530078125,-0.646434448242,10.285490332,1.0,0.0,0.0,0.0,1.0,0.0,0.0,0.0,1.0
1481797679356893261,157,1481797679355467448,,-2.18858575821,-7.87963199615,-160.51751709,0.00128199998289,1.0,0.0,0.0,0.0,1.0,0.0,0.0,0.0,1.0,-2.25609779358,0.792682945728,1.76829278469,1.0,0.0,0.0,0.0,1.0,0.0,0.0,0.0,1.0,0.756567724609,-0.61770402832,10.1897222656,1.0,0.0,0.0,0.0,1.0,0.0,0.0,0.0,1.0
1481797679399768359,158,1481797679398038801,,-2.20247936249,-7.88124752045,-160.371276855,0.00112200004514,1.0,0.0,0.0,0.0,1.0,0.0,0.0,0.0,1.0,-2.13414645195,0.853658556938,2.13414645195,1.0,0.0,0.0,0.0,1.0,0.0,0.0,0.0,1.0,0.809240161133,-0.550666381836,10.0125513428,1.0,0.0,0.0,0.0,1.0,0.0,0.0,0.0,1.0
1481797679442424034,159,1481797679440030319,,-2.21587824821,-7.87664747238,-160.227050781,0.00112399994396,1.0,0.0,0.0,0.0,1.0,0.0,0.0,0.0,1.0,-2.31707310677,0.792682945728,1.8902438879,1.0,0.0,0.0,0.0,1.0,0.0,0.0,0.0,1.0,0.885854614258,-0.507570751953,10.0939541992,1.0,0.0,0.0,0.0,1.0,0.0,0.0,0.0,1.0
1481797679483559314,160,1481797679482070690,,-2.22963857651,-7.87622928619,-160.081771851,0.00110899994615,1.0,0.0,0.0,0.0,1.0,0.0,0.0,0.0,1.0,-2.13414645195,1.03658533096,2.07317066193,1.0,0.0,0.0,0.0,1.0,0.0,0.0,0.0,1.0,0.991199487305,-0.541089611728,10.0987426025,1.0,0.0,0.0,0.0,1.0,0.0,0.0,0.0,1.0
1481797679526010460,161,1481797679523930022,,-2.23935580254,-7.87980079651,-159.936279297,0.000965000013821,1.0,0.0,0.0,0.0,1.0,0.0,0.0,0.0,1.0,-2.25609779358,0.731707334518,2.01219511032,1.0,0.0,0.0,0.0,1.0,0.0,0.0,0.0,1.0,0.746990917969,-0.545877978516,10.0891657959,1.0,0.0,0.0,0.0,1.0,0.0,0.0,0.0,1.0
1481797679568021926,162,1481797679566340804,,-2.25585484505,-7.87724256516,-159.787414551,0.000961999990977,1.0,0.0,0.0,0.0,1.0,0.0,0.0,0.0,1.0,-2.13414645195,0.731707334518,1.8902438879,1.0,0.0,0.0,0.0,1.0,0.0,0.0,0.0,1.0,0.785298144531,-0.651222851562,10.0029745361,1.0,0.0,0.0,0.0,1.0,0.0,0.0,0.0,1.0
1481797679611496078,163,1481797679608810753,,-2.26829457283,-7.876973629,-159.639480591,0.000965000013821,1.0,0.0,0.0,0.0,1.0,0.0,0.0,0.0,1.0,-2.13414645195,0.731707334518,1.8292683363,1.0,0.0,0.0,0.0,1.0,0.0,0.0,0.0,1.0,0.823605371094,-0.574608398438,10.1370498291,1.0,0.0,0.0,0.0,1.0,0.0,0.0,0.0,1.0
1481797679655639803,164,1481797679651068933,,-2.2835457325,-7.88051319122,-159.494400024,0.00100399996154,1.0,0.0,0.0,0.0,1.0,0.0,0.0,0.0,1.0,-2.19512200356,0.914634168148,1.95121955872,1.0,0.0,0.0,0.0,1.0,0.0,0.0,0.0,1.0,0.9193734375,-0.689530078125,10.0652237793,1.0,0.0,0.0,0.0,1.0,0.0,0.0,0.0,1.0
1481797679695138910,165,1481797679693831585,,-2.40483880043,-7.92168951035,-159.37071228,0.00104300002567,1.0,0.0,0.0,0.0,1.0,0.0,0.0,0.0,1.0,-3.90243911743,-1.34146344662,0.731707334518,1.0,0.0,0.0,0.0,1.0,0.0,0.0,0.0,1.0,1.64721074219,-0.0814028564453,10.1609918457,1.0,0.0,0.0,0.0,1.0,0.0,0.0,0.0,1.0
1481797679736579654,166,1481797679735294934,,-2.44033408165,-7.8584728241,-159.269134521,0.00107700005174,1.0,0.0,0.0,0.0,1.0,0.0,0.0,0.0,1.0,-2.62195134163,1.09756100178,3.35365867615,1.0,0.0,0.0,0.0,1.0,0.0,0.0,0.0,1.0,0.603338854892,-0.603338854892,10.1370498291,1.0,0.0,0.0,0.0,1.0,0.0,0.0,0.0,1.0
1481797679778314822,167,1481797679777015414,,-2.51742076874,-7.92092752457,-159.082855225,0.000972000008915,1.0,0.0,0.0,0.0,1.0,0.0,0.0,0.0,1.0,2.31707310677,1.70731711388,0.0,1.0,0.0,0.0,0.0,1.0,0.0,0.0,0.0,1.0,-1.21625444336,-2.77727392578,11.4107651123,1.0,0.0,0.0,0.0,1.0,0.0,0.0,0.0,1.0
1481797679820140977,168,1481797679818824017,,-2.68034625053,-7.90307569504,-159.156845093,0.00096700002905,1.0,0.0,0.0,0.0,1.0,0.0,0.0,0.0,1.0,-0.670731723309,2.37804889679,-5.85365867615,1.0,0.0,0.0,0.0,1.0,0.0,0.0,0.0,1.0,0.708683691406,0.703895288086,9.70130512695,1.0,0.0,0.0,0.0,1.0,0.0,0.0,0.0,1.0
1481797679863393466,169,1481797679861474744,,-2.99896883965,-7.79374647141,-159.597824097,0.000964000006206,1.0,0.0,0.0,0.0,1.0,0.0,0.0,0.0,1.0,-2.01219511032,7.50000047684,-16.8292694092,1.0,0.0,0.0,0.0,1.0,0.0,0.0,0.0,1.0,2.41335541957,-1.62805712891,10.0269165527,1.0,0.0,0.0,0.0,1.0,0.0,0.0,0.0,1.0
1481797679905519773,170,1481797679903990004,,-2.83892798424,-7.87215137482,-160.406265259,0.000972000008915,1.0,0.0,0.0,0.0,1.0,0.0,0.0,0.0,1.0,-1.8292683363,16.9512195587,-17.0121955872,1.0,0.0,0.0,0.0,1.0,0.0,0.0,0.0,1.0,0.933738647461,-0.775721337891,9.98382092285,1.0,0.0,0.0,0.0,1.0,0.0,0.0,0.0,1.0
1481797679947498218,171,1481797679946088812,,-1.98679471016,-7.76386117935,-160.960647583,0.000959999975748,1.0,0.0,0.0,0.0,1.0,0.0,0.0,0.0,1.0,-0.853658556938,35.0609741211,-6.46341466904,1.0,0.0,0.0,0.0,1.0,0.0,0.0,0.0,1.0,1.72382519531,-0.0478840332031,10.1945106689,1.0,0.0,0.0,0.0,1.0,0.0,0.0,0.0,1.0
1481797679989915198,172,1481797679988454907,,-0.467541992664,-7.72827720642,-161.34664917,0.000967999978457,1.0,0.0,0.0,0.0,1.0,0.0,0.0,0.0,1.0,-0.792682945728,43.7195129395,-3.96341490746,1.0,0.0,0.0,0.0,1.0,0.0,0.0,0.0,1.0,0.373495458984,-0.713472094727,10.1753570557,1.0,0.0,0.0,0.0,1.0,0.0,0.0,0.0,1.0
1481797680031859581,173,1481797680030247834,,1.38761770725,-7.77746534348,-161.579071045,0.000961999990977,1.0,0.0,0.0,0.0,1.0,0.0,0.0,0.0,1.0,-1.34146344662,41.4634170532,1.52439022064,1.0,0.0,0.0,0.0,1.0,0.0,0.0,0.0,1.0,-0.0909796630859,-0.478840332031,10.0652237793,1.0,0.0,0.0,0.0,1.0,0.0,0.0,0.0,1.0
1481797680074213646,174,1481797680072179301,,2.98763489723,-7.72921037674,-161.788085938,0.00100399996154,1.0,0.0,0.0,0.0,1.0,0.0,0.0,0.0,1.0,-2.43902444839,30.7926845551,-1.03658533096,1.0,0.0,0.0,0.0,1.0,0.0,0.0,0.0,1.0,-0.732625708008,-0.0191536132812,10.3190091553,1.0,0.0,0.0,0.0,1.0,0.0,0.0,0.0,1.0
1481797680116430733,175,1481797680114707946,,4.29351758957,-7.66209936142,-161.946517944,0.00105500000063,1.0,0.0,0.0,0.0,1.0,0.0,0.0,0.0,1.0,-2.07317066193,23.1707324982,-0.609756112099,1.0,0.0,0.0,0.0,1.0,0.0,0.0,0.0,1.0,-1.42694418945,-0.368707055664,9.93593688965,1.0,0.0,0.0,0.0,1.0,0.0,0.0,0.0,1.0
1481797680158324804,176,1481797680156684985,,5.27554798126,-7.6769785881,-161.901809692,0.00130300002638,1.0,0.0,0.0,0.0,1.0,0.0,0.0,0.0,1.0,-2.74390244484,7.25609779358,1.2195122242,1.0,0.0,0.0,0.0,1.0,0.0,0.0,0.0,1.0,-1.92014973145,-0.402225878906,9.90720646973,1.0,0.0,0.0,0.0,1.0,0.0,0.0,0.0,1.0
1481797680200069190,177,1481797680198407235,,5.42080545425,-7.67823791504,-161.770339966,0.000967999978457,1.0,0.0,0.0,0.0,1.0,0.0,0.0,0.0,1.0,-2.19512200356,-5.30487823486,0.731707334518,1.0,0.0,0.0,0.0,1.0,0.0,0.0,0.0,1.0,-1.47961662598,-0.77093293457,9.93114848633,1.0,0.0,0.0,0.0,1.0,0.0,0.0,0.0,1.0
1481797680242520076,178,1481797680240823591,,5.09931850433,-7.71616220474,-161.574417114,0.000977999996394,1.0,0.0,0.0,0.0,1.0,0.0,0.0,0.0,1.0,-2.43902444839,-15.3658533096,1.34146344662,1.0,0.0,0.0,0.0,1.0,0.0,0.0,0.0,1.0,-0.909796630859,-0.775721337891,9.97903251953,1.0,0.0,0.0,0.0,1.0,0.0,0.0,0.0,1.0
1481797680289345793,179,1481797680282859014,,4.3646478653,-7.67600011826,-161.349212646,0.00123900000472,1.0,0.0,0.0,0.0,1.0,0.0,0.0,0.0,1.0,-2.07317066193,-19.3902435303,0.18292683363,1.0,0.0,0.0,0.0,1.0,0.0,0.0,0.0,1.0,-0.287304199219,-0.421379492187,10.1370498291,1.0,0.0,0.0,0.0,1.0,0.0,0.0,0.0,1.0
1481797680327026958,180,1481797680324761731,,3.47249817848,-7.66895008087,-161.165786743,0.00119199999608,1.0,0.0,0.0,0.0,1.0,0.0,0.0,0.0,1.0,-2.5,-21.7682933807,-5.30487823486,1.0,0.0,0.0,0.0,1.0,0.0,0.0,0.0,1.0,-0.660799658203,-0.565031591797,10.0412817627,1.0,0.0,0.0,0.0,1.0,0.0,0.0,0.0,1.0
1481797680369047381,181,1481797680367066838,,2.52346324921,-7.65027761459,-161.101654053,0.00098600005731,1.0,0.0,0.0,0.0,1.0,0.0,0.0,0.0,1.0,-2.74390244484,-16.6463413239,1.15853655338,1.0,0.0,0.0,0.0,1.0,0.0,0.0,0.0,1.0,0.790086547852,-0.45968671875,10.2280294922,1.0,0.0,0.0,0.0,1.0,0.0,0.0,0.0,1.0
1481797680411949511,182,1481797680409314029,,1.84118855,-7.64345836639,-160.994552612,0.00109499995597,1.0,0.0,0.0,0.0,1.0,0.0,0.0,0.0,1.0,-2.37804889679,-10.3658542633,-1.40243899822,1.0,0.0,0.0,0.0,1.0,0.0,0.0,0.0,1.0,0.833182177734,-0.402225878906,10.1226846191,1.0,0.0,0.0,0.0,1.0,0.0,0.0,0.0,1.0
1481797680458941267,183,1481797680454202743,,1.46616053581,-7.62748146057,-160.867401123,0.00346900010481,1.0,0.0,0.0,0.0,1.0,0.0,0.0,0.0,1.0,-1.76829278469,1.09756100178,1.58536589146,1.0,0.0,0.0,0.0,1.0,0.0,0.0,0.0,1.0,0.746990917969,-0.430956298828,10.2759135254,1.0,0.0,0.0,0.0,1.0,0.0,0.0,0.0,1.0
1481797680497138257,184,1481797680494819594,,1.49339210987,-7.62801885605,-160.754104614,0.00113999994937,1.0,0.0,0.0,0.0,1.0,0.0,0.0,0.0,1.0,-1.95121955872,7.86585378647,1.76829278469,1.0,0.0,0.0,0.0,1.0,0.0,0.0,0.0,1.0,0.512359155273,-0.756567724609,10.2376062988,1.0,0.0,0.0,0.0,1.0,0.0,0.0,0.0,1.0
1481797680539181597,185,1481797680537492195,,1.83834338188,-7.67017650604,-160.647705078,0.00102800002787,1.0,0.0,0.0,0.0,1.0,0.0,0.0,0.0,1.0,-2.07317066193,11.341463089,2.31707310677,1.0,0.0,0.0,0.0,1.0,0.0,0.0,0.0,1.0,0.301669427446,-0.837970581055,10.3046439453,1.0,0.0,0.0,0.0,1.0,0.0,0.0,0.0,1.0
1481797680581212698,186,1481797680579462151,,2.32354307175,-7.68120574951,-160.533950806,0.000969999993686,1.0,0.0,0.0,0.0,1.0,0.0,0.0,0.0,1.0,-2.68292689323,11.4024391174,2.74390244484,1.0,0.0,0.0,0.0,1.0,0.0,0.0,0.0,1.0,-0.143652099609,-0.780509741211,9.58159562847,1.0,0.0,0.0,0.0,1.0,0.0,0.0,0.0,1.0
1481797680624140087,187,1481797680622382353,,2.8262155056,-7.63507127762,-160.417282104,0.0014609999489,1.0,0.0,0.0,0.0,1.0,0.0,0.0,0.0,1.0,-1.8902438879,7.62195110321,1.2195122242,1.0,0.0,0.0,0.0,1.0,0.0,0.0,0.0,1.0,-0.569819995117,-0.550666381836,10.2807019287,1.0,0.0,0.0,0.0,1.0,0.0,0.0,0.0,1.0
1481797680666398320,188,1481797680664716157,,3.17894005775,-7.61347532272,-160.279373169,0.000964000006206,1.0,0.0,0.0,0.0,1.0,0.0,0.0,0.0,1.0,-1.70731711388,7.13414621353,2.68292689323,1.0,0.0,0.0,0.0,1.0,0.0,0.0,0.0,1.0,-0.186747729492,-0.545877978516,10.1753570557,1.0,0.0,0.0,0.0,1.0,0.0,0.0,0.0,1.0
1481797680719105096,189,1481797680707007462,,3.44273042679,-7.61265659332,-160.136581421,0.000956000003498,1.0,0.0,0.0,0.0,1.0,0.0,0.0,0.0,1.0,-2.19512200356,4.45121955872,1.76829278469,1.0,0.0,0.0,0.0,1.0,0.0,0.0,0.0,1.0,-0.181959326172,-0.550666381836,10.2663367187,1.0,0.0,0.0,0.0,1.0,0.0,0.0,0.0,1.0
1481797680751378267,190,1481797680749598762,,3.57406067848,-7.60778188705,-159.991851807,0.000966000021435,1.0,0.0,0.0,0.0,1.0,0.0,0.0,0.0,1.0,-2.13414645195,0.731707334518,1.03658533096,1.0,0.0,0.0,0.0,1.0,0.0,0.0,0.0,1.0,-0.603338854892,-0.675164868164,9.89284125977,1.0,0.0,0.0,0.0,1.0,0.0,0.0,0.0,1.0
1481797680793774258,191,1481797680791858714,,3.53725504875,-7.5999712944,-159.864562988,0.00104300002567,1.0,0.0,0.0,0.0,1.0,0.0,0.0,0.0,1.0,-1.70731711388,-0.853658556938,0.609756112099,1.0,0.0,0.0,0.0,1.0,0.0,0.0,0.0,1.0,-0.110133276367,-0.598550451572,10.2136642822,1.0,0.0,0.0,0.0,1.0,0.0,0.0,0.0,1.0
1481797680835175472,192,1481797680833505497,,3.4748942852,-7.58518409729,-159.721511841,0.00105900003109,1.0,0.0,0.0,0.0,1.0,0.0,0.0,0.0,1.0,-2.19512200356,-0.975609779358,1.95121955872,1.0,0.0,0.0,0.0,1.0,0.0,0.0,0.0,1.0,-0.325611425781,-0.541089611728,10.2040874756,1.0,0.0,0.0,0.0,1.0,0.0,0.0,0.0,1.0
1481797680877302561,193,1481797680875875446,,3.38843870163,-7.57324266434,-159.549377441,0.000986999948509,1.0,0.0,0.0,0.0,1.0,0.0,0.0,0.0,1.0,-2.01219511032,-0.18292683363,1.64634156227,1.0,0.0,0.0,0.0,1.0,0.0,0.0,0.0,1.0,-0.0861912597656,-0.632069238281,10.0652237793,1.0,0.0,0.0,0.0,1.0,0.0,0.0,0.0,1.0
1481797680919825841,194,1481797680918465757,,3.34944391251,-7.56333255768,-159.386199951,0.000959000026342,1.0,0.0,0.0,0.0,1.0,0.0,0.0,0.0,1.0,-2.31707310677,-0.0609756112099,1.95121955872,1.0,0.0,0.0,0.0,1.0,0.0,0.0,0.0,1.0,-0.191536132812,-0.536301208408,10.2088758789,1.0,0.0,0.0,0.0,1.0,0.0,0.0,0.0,1.0
1481797680962324956,195,1481797680960863727,,3.31042361259,-7.55210971832,-159.204086304,0.000996000017039,1.0,0.0,0.0,0.0,1.0,0.0,0.0,0.0,1.0,-2.13414645195,0.0,2.43902444839,1.0,0.0,0.0,0.0,1.0,0.0,0.0,0.0,1.0,-0.253785375977,-0.507570751953,10.180145459,1.0,0.0,0.0,0.0,1.0,0.0,0.0,0.0,1.0
1481797681004914850,196,1481797681003509298,,3.25633716583,-7.5353307724,-159.030700684,0.000977999996394,1.0,0.0,0.0,0.0,1.0,0.0,0.0,0.0,1.0,-2.13414645195,-0.243902444839,1.76829278469,1.0,0.0,0.0,0.0,1.0,0.0,0.0,0.0,1.0,-0.138863696289,-0.493205541992,10.2376062988,1.0,0.0,0.0,0.0,1.0,0.0,0.0,0.0,1.0
1481797681047142302,197,1481797681045785030,,3.2164375782,-7.51262283325,-158.858200073,0.000960999983363,1.0,0.0,0.0,0.0,1.0,0.0,0.0,0.0,1.0,-2.01219511032,-0.18292683363,2.31707310677,1.0,0.0,0.0,0.0,1.0,0.0,0.0,0.0,1.0,-0.234631762695,-0.474051928711,10.0700121826,1.0,0.0,0.0,0.0,1.0,0.0,0.0,0.0,1.0
1481797681091883102,198,1481797681088391018,,3.14216756821,-7.50882577896,-158.693710327,0.000958000018727,1.0,0.0,0.0,0.0,1.0,0.0,0.0,0.0,1.0,-1.95121955872,0.0609756112099,1.2804877758,1.0,0.0,0.0,0.0,1.0,0.0,0.0,0.0,1.0,-0.00478840332031,-0.512359155273,10.0508585693,1.0,0.0,0.0,0.0,1.0,0.0,0.0,0.0,1.0
1481797681135449649,199,1481797681130534044,,3.11295104027,-7.49299478531,-158.553573608,0.000977999996394,1.0,0.0,0.0,0.0,1.0,0.0,0.0,0.0,1.0,-2.07317066193,0.914634168148,1.70731711388,1.0,0.0,0.0,0.0,1.0,0.0,0.0,0.0,1.0,-0.0909796630859,-0.560243188477,10.165780249,1.0,0.0,0.0,0.0,1.0,0.0,0.0,0.0,1.0
1481797681174095382,200,1481797681172369522,,3.11698031425,-7.48794841766,-158.401062012,0.00144699995872,1.0,0.0,0.0,0.0,1.0,0.0,0.0,0.0,1.0,-1.76829278469,1.76829278469,1.70731711388,1.0,0.0,0.0,0.0,1.0,0.0,0.0,0.0,1.0,-0.0861912597656,-0.512359155273,10.1322614258,1.0,0.0,0.0,0.0,1.0,0.0,0.0,0.0,1.0
1481797681215384775,201,1481797681214084742,,3.15656161308,-7.48518705368,-158.255645752,0.00112000002991,1.0,0.0,0.0,0.0,1.0,0.0,0.0,0.0,1.0,-2.19512200356,1.40243899822,1.52439022064,1.0,0.0,0.0,0.0,1.0,0.0,0.0,0.0,1.0,-0.225054956055,-0.493205541992,10.1562034424,1.0,0.0,0.0,0.0,1.0,0.0,0.0,0.0,1.0
1481797681258104251,202,1481797681256776458,,3.18688797951,-7.46834230423,-158.105545044,0.000981000019237,1.0,0.0,0.0,0.0,1.0,0.0,0.0,0.0,1.0,-2.01219511032,1.15853655338,1.46341466904,1.0,0.0,0.0,0.0,1.0,0.0,0.0,0.0,1.0,-0.201112939453,-0.598550451572,10.180145459,1.0,0.0,0.0,0.0,1.0,0.0,0.0,0.0,1.0
1481797681300549772,203,1481797681299142501,,3.18571567535,-7.46947908401,-157.952529907,0.00096700002905,1.0,0.0,0.0,0.0,1.0,0.0,0.0,0.0,1.0,-1.8902438879,0.18292683363,1.58536589146,1.0,0.0,0.0,0.0,1.0,0.0,0.0,0.0,1.0,-0.191536132812,-0.660799658203,10.2615483154,1.0,0.0,0.0,0.0,1.0,0.0,0.0,0.0,1.0
1481797681342883160,204,1481797681341013291,,3.15617442131,-7.46332406998,-157.792907715,0.000991999986582,1.0,0.0,0.0,0.0,1.0,0.0,0.0,0.0,1.0,-1.95121955872,-0.609756112099,1.8292683363,1.0,0.0,0.0,0.0,1.0,0.0,0.0,0.0,1.0,-0.263362164351,-0.545877978516,10.2471831055,1.0,0.0,0.0,0.0,1.0,0.0,0.0,0.0,1.0
1481797681385293369,205,1481797681383490166,,3.09598588943,-7.44763708115,-157.620117188,0.000983000034466,1.0,0.0,0.0,0.0,1.0,0.0,0.0,0.0,1.0,-1.95121955872,-0.609756112099,2.07317066193,1.0,0.0,0.0,0.0,1.0,0.0,0.0,0.0,1.0,-0.119710083008,-0.60812722168,10.1992990723,1.0,0.0,0.0,0.0,1.0,0.0,0.0,0.0,1.0
1481797681427531029,206,1481797681425740378,,3.0246553421,-7.44072198868,-157.46295166,0.000959000026342,1.0,0.0,0.0,0.0,1.0,0.0,0.0,0.0,1.0,-2.19512200356,-1.40243899822,1.46341466904,1.0,0.0,0.0,0.0,1.0,0.0,0.0,0.0,1.0,-0.172382519531,-0.474051928711,10.1562034424,1.0,0.0,0.0,0.0,1.0,0.0,0.0,0.0,1.0
1481797681470245921,207,1481797681468118192,,2.9292113781,-7.42065382004,-157.287094116,0.000957000011113,1.0,0.0,0.0,0.0,1.0,0.0,0.0,0.0,1.0,-2.19512200356,-2.01219511032,1.58536589146,1.0,0.0,0.0,0.0,1.0,0.0,0.0,0.0,1.0,-0.177170922852,-0.474051928711,10.0364933594,1.0,0.0,0.0,0.0,1.0,0.0,0.0,0.0,1.0
1481797681513002272,208,1481797681510876990,,2.78990530968,-7.41124820709,-157.120513916,0.00100299995393,1.0,0.0,0.0,0.0,1.0,0.0,0.0,0.0,1.0,-2.07317066193,-3.10975623131,1.58536589146,1.0,0.0,0.0,0.0,1.0,0.0,0.0,0.0,1.0,-0.201112939453,-0.555454785156,10.0987426025,1.0,0.0,0.0,0.0,1.0,0.0,0.0,0.0,1.0
1481797681556713972,209,1481797681552884654,,2.62054514885,-7.40101051331,-156.945220947,0.00113600003533,1.0,0.0,0.0,0.0,1.0,0.0,0.0,0.0,1.0,-1.8292683363,-3.7804877758,1.52439022064,1.0,0.0,0.0,0.0,1.0,0.0,0.0,0.0,1.0,-0.0814028564453,-0.502782348633,10.1849338623,1.0,0.0,0.0,0.0,1.0,0.0,0.0,0.0,1.0
1481797681596729113,210,1481797681594910390,,2.40710830688,-7.39894151688,-156.765731812,0.00106999999844,1.0,0.0,0.0,0.0,1.0,0.0,0.0,0.0,1.0,-1.8292683363,-4.2682929039,1.15853655338,1.0,0.0,0.0,0.0,1.0,0.0,0.0,0.0,1.0,0.0430956298828,-0.632069238281,10.0939541992,1.0,0.0,0.0,0.0,1.0,0.0,0.0,0.0,1.0
1481797681638760213,211,1481797681636976489,,2.19512152672,-7.38564395905,-156.610961914,0.0009710000013,1.0,0.0,0.0,0.0,1.0,0.0,0.0,0.0,1.0,-2.19512200356,-4.32926845551,1.2195122242,1.0,0.0,0.0,0.0,1.0,0.0,0.0,0.0,1.0,-0.134075302102,-0.497993945312,10.1274730225,1.0,0.0,0.0,0.0,1.0,0.0,0.0,0.0,1.0
1481797681680656680,212,1481797681678874988,,1.96606516838,-7.39161109924,-156.452713013,0.000982000026852,1.0,0.0,0.0,0.0,1.0,0.0,0.0,0.0,1.0,-1.8902438879,-4.57317066193,1.95121955872,1.0,0.0,0.0,0.0,1.0,0.0,0.0,0.0,1.0,0.234631762695,-0.545877978516,10.2376062988,1.0,0.0,0.0,0.0,1.0,0.0,0.0,0.0,1.0
1481797681722866163,213,1481797681721043899,,1.74184751511,-7.39444875717,-156.292907715,0.000992999994196,1.0,0.0,0.0,0.0,1.0,0.0,0.0,0.0,1.0,-2.13414645195,-3.41463422775,1.15853655338,1.0,0.0,0.0,0.0,1.0,0.0,0.0,0.0,1.0,0.15801730957,-0.478840332031,10.1274730225,1.0,0.0,0.0,0.0,1.0,0.0,0.0,0.0,1.0
1481797681764828984,214,1481797681762880887,,1.57154965401,-7.39561796188,-156.131408691,0.00135200005025,1.0,0.0,0.0,0.0,1.0,0.0,0.0,0.0,1.0,-2.43902444839,-0.731707334518,2.07317066193,1.0,0.0,0.0,0.0,1.0,0.0,0.0,0.0,1.0,0.416591088867,-0.502782348633,10.0364933594,1.0,0.0,0.0,0.0,1.0,0.0,0.0,0.0,1.0
1481797681807002530,215,1481797681805128755,,1.53022575378,-7.39532470703,-155.96812439,0.0009710000013,1.0,0.0,0.0,0.0,1.0,0.0,0.0,0.0,1.0,-2.01219511032,1.15853655338,2.01219511032,1.0,0.0,0.0,0.0,1.0,0.0,0.0,0.0,1.0,0.114921679688,-0.61770402832,10.2184526855,1.0,0.0,0.0,0.0,1.0,0.0,0.0,0.0,1.0
1481797681848525252,216,1481797681846891943,,1.54128587246,-7.39760494232,-155.817703247,0.00111800001469,1.0,0.0,0.0,0.0,1.0,0.0,0.0,0.0,1.0,-2.13414645195,2.25609779358,1.76829278469,1.0,0.0,0.0,0.0,1.0,0.0,0.0,0.0,1.0,0.181959326172,-0.502782348633,10.0987426025,1.0,0.0,0.0,0.0,1.0,0.0,0.0,0.0,1.0
1481797681892173829,217,1481797681888668204,,1.61606931686,-7.39705848694,-155.675552368,0.00114299997222,1.0,0.0,0.0,0.0,1.0,0.0,0.0,0.0,1.0,-2.13414645195,2.74390244484,1.8902438879,1.0,0.0,0.0,0.0,1.0,0.0,0.0,0.0,1.0,0.076614453125,-0.507570751953,10.1274730225,1.0,0.0,0.0,0.0,1.0,0.0,0.0,0.0,1.0
1481797681932259073,218,1481797681930614357,,1.68768560886,-7.39647293091,-155.531295776,0.0010379999876,1.0,0.0,0.0,0.0,1.0,0.0,0.0,0.0,1.0,-1.8902438879,2.43902444839,1.70731711388,1.0,0.0,0.0,0.0,1.0,0.0,0.0,0.0,1.0,0.0,-0.622492431641,10.1322614258,1.0,0.0,0.0,0.0,1.0,0.0,0.0,0.0,1.0
1481797681977748508,219,1481797681974054760,,1.76418244839,-7.39746236801,-155.382400513,0.00146299996413,1.0,0.0,0.0,0.0,1.0,0.0,0.0,0.0,1.0,-2.25609779358,1.58536589146,1.8292683363,1.0,0.0,0.0,0.0,1.0,0.0,0.0,0.0,1.0,0.0143652099609,-0.45968671875,10.2376062988,1.0,0.0,0.0,0.0,1.0,0.0,0.0,0.0,1.0
1481797682017874740,220,1481797682016512729,,1.79477393627,-7.39975976944,-155.22744751,0.00203699991107,1.0,0.0,0.0,0.0,1.0,0.0,0.0,0.0,1.0,-2.01219511032,0.853658556938,1.76829278469,1.0,0.0,0.0,0.0,1.0,0.0,0.0,0.0,1.0,0.00957680664062,-0.60812722168,10.2807019287,1.0,0.0,0.0,0.0,1.0,0.0,0.0,0.0,1.0
1481797682060597497,221,1481797682057932380,,1.79971861839,-7.39200973511,-155.068435669,0.00103899999522,1.0,0.0,0.0,0.0,1.0,0.0,0.0,0.0,1.0,-2.13414645195,0.12195122242,1.95121955872,1.0,0.0,0.0,0.0,1.0,0.0,0.0,0.0,1.0,0.0,-0.555454785156,10.1849338623,1.0,0.0,0.0,0.0,1.0,0.0,0.0,0.0,1.0
1481797682102386830,222,1481797682099794108,,1.75823605061,-7.39460277557,-154.906723022,0.00107700005174,1.0,0.0,0.0,0.0,1.0,0.0,0.0,0.0,1.0,-2.25609779358,-0.670731723309,1.58536589146,1.0,0.0,0.0,0.0,1.0,0.0,0.0,0.0,1.0,-0.0143652099609,-0.61770402832,10.0939541992,1.0,0.0,0.0,0.0,1.0,0.0,0.0,0.0,1.0
1481797682144279339,223,1481797682141894947,,1.69096386433,-7.3930606842,-154.750274658,0.00116700003855,1.0,0.0,0.0,0.0,1.0,0.0,0.0,0.0,1.0,-2.01219511032,-0.670731723309,1.40243899822,1.0,0.0,0.0,0.0,1.0,0.0,0.0,0.0,1.0,0.0957680664062,-0.526724328702,10.1562034424,1.0,0.0,0.0,0.0,1.0,0.0,0.0,0.0,1.0
1481797682185938570,224,1481797682184167711,,1.62793505192,-7.39504289627,-154.587493896,0.00126299995463,1.0,0.0,0.0,0.0,1.0,0.0,0.0,0.0,1.0,-2.07317066193,-0.12195122242,2.01219511032,1.0,0.0,0.0,0.0,1.0,0.0,0.0,0.0,1.0,0.114921679688,-0.531512805087,10.0939541992,1.0,0.0,0.0,0.0,1.0,0.0,0.0,0.0,1.0
1481797682227944515,225,1481797682225975221,,1.59213662148,-7.38846540451,-154.429336548,0.000966000021435,1.0,0.0,0.0,0.0,1.0,0.0,0.0,0.0,1.0,-2.13414645195,0.548780500889,1.95121955872,1.0,0.0,0.0,0.0,1.0,0.0,0.0,0.0,1.0,0.220266552734,-0.474051928711,10.165780249,1.0,0.0,0.0,0.0,1.0,0.0,0.0,0.0,1.0
1481797682270228268,226,1481797682268383347,,1.59964072704,-7.39188718796,-154.277420044,0.00101600005291,1.0,0.0,0.0,0.0,1.0,0.0,0.0,0.0,1.0,-2.43902444839,1.46341466904,1.8902438879,1.0,0.0,0.0,0.0,1.0,0.0,0.0,0.0,1.0,0.138863696289,-0.569819995117,10.1035310059,1.0,0.0,0.0,0.0,1.0,0.0,0.0,0.0,1.0
1481797682312592696,227,1481797682310698922,,1.62165129185,-7.39432764053,-154.120834351,0.00100899999961,1.0,0.0,0.0,0.0,1.0,0.0,0.0,0.0,1.0,-2.5,1.70731711388,1.70731711388,1.0,0.0,0.0,0.0,1.0,0.0,0.0,0.0,1.0,0.239420166016,-0.550666381836,10.165780249,1.0,0.0,0.0,0.0,1.0,0.0,0.0,0.0,1.0
1481797682354300364,228,1481797682352623618,,1.6559933424,-7.38816070557,-153.978042603,0.00145600002725,1.0,0.0,0.0,0.0,1.0,0.0,0.0,0.0,1.0,-2.37804889679,1.64634156227,1.70731711388,1.0,0.0,0.0,0.0,1.0,0.0,0.0,0.0,1.0,0.0239420166016,-0.531512805087,10.2280294922,1.0,0.0,0.0,0.0,1.0,0.0,0.0,0.0,1.0
1481797682396643700,229,1481797682394135768,,1.69446671009,-7.38794374466,-153.83152771,0.00257600005716,1.0,0.0,0.0,0.0,1.0,0.0,0.0,0.0,1.0,-2.13414645195,1.95121955872,1.70731711388,1.0,0.0,0.0,0.0,1.0,0.0,0.0,0.0,1.0,0.0287304199219,-0.502782348633,10.1131078125,1.0,0.0,0.0,0.0,1.0,0.0,0.0,0.0,1.0
1481797682437904395,230,1481797682436182441,,1.73288059235,-7.38309764862,-153.676651001,0.00108199997339,1.0,0.0,0.0,0.0,1.0,0.0,0.0,0.0,1.0,-2.37804889679,1.2804877758,1.8902438879,1.0,0.0,0.0,0.0,1.0,0.0,0.0,0.0,1.0,0.0239420166016,-0.502782348633,10.2567599121,1.0,0.0,0.0,0.0,1.0,0.0,0.0,0.0,1.0
1481797682479786383,231,1481797682478126876,,1.74433255196,-7.37206029892,-153.523010254,0.000966000021435,1.0,0.0,0.0,0.0,1.0,0.0,0.0,0.0,1.0,-2.13414645195,0.914634168148,1.70731711388,1.0,0.0,0.0,0.0,1.0,0.0,0.0,0.0,1.0,0.0430956298828,-0.502782348633,10.1514150391,1.0,0.0,0.0,0.0,1.0,0.0,0.0,0.0,1.0
1481797682521851649,232,1481797682519981573,,1.74765002728,-7.37542152405,-153.37121582,0.000973000016529,1.0,0.0,0.0,0.0,1.0,0.0,0.0,0.0,1.0,-2.07317066193,0.487804889679,1.8292683363,1.0,0.0,0.0,0.0,1.0,0.0,0.0,0.0,1.0,0.00478840332031,-0.526724328702,10.1226846191,1.0,0.0,0.0,0.0,1.0,0.0,0.0,0.0,1.0
1481797682563693013,233,1481797682561934341,,1.73119997978,-7.37451648712,-153.220001221,0.000988999963738,1.0,0.0,0.0,0.0,1.0,0.0,0.0,0.0,1.0,-2.07317066193,0.243902444839,1.8902438879,1.0,0.0,0.0,0.0,1.0,0.0,0.0,0.0,1.0,0.0957680664062,-0.550666381836,10.0987426025,1.0,0.0,0.0,0.0,1.0,0.0,0.0,0.0,1.0
1481797682606127024,234,1481797682604399393,,1.71145045757,-7.3741645813,-153.066802979,0.00108600000385,1.0,0.0,0.0,0.0,1.0,0.0,0.0,0.0,1.0,-2.13414645195,0.548780500889,1.70731711388,1.0,0.0,0.0,0.0,1.0,0.0,0.0,0.0,1.0,0.0957680664062,-0.584185168546,10.1562034424,1.0,0.0,0.0,0.0,1.0,0.0,0.0,0.0,1.0
1481797682648438381,235,1481797682646924914,,1.70429897308,-7.37272644043,-152.91192627,0.00107400002889,1.0,0.0,0.0,0.0,1.0,0.0,0.0,0.0,1.0,-1.95121955872,1.15853655338,1.8902438879,1.0,0.0,0.0,0.0,1.0,0.0,0.0,0.0,1.0,0.0430956298828,-0.493205541992,10.2136642822,1.0,0.0,0.0,0.0,1.0,0.0,0.0,0.0,1.0
1481797682691809722,236,1481797682689023409,,1.71701323986,-7.37043952942,-152.760437012,0.0010300000431,1.0,0.0,0.0,0.0,1.0,0.0,0.0,0.0,1.0,-2.19512200356,1.15853655338,2.01219511032,1.0,0.0,0.0,0.0,1.0,0.0,0.0,0.0,1.0,0.100556469727,-0.493205541992,10.1849338623,1.0,0.0,0.0,0.0,1.0,0.0,0.0,0.0,1.0
1481797682734123422,237,1481797682731511013,,1.73820781708,-7.37299919128,-152.609298706,0.00113800005056,1.0,0.0,0.0,0.0,1.0,0.0,0.0,0.0,1.0,-2.31707310677,1.46341466904,1.76829278469,1.0,0.0,0.0,0.0,1.0,0.0,0.0,0.0,1.0,0.076614453125,-0.521935925381,10.2088758789,1.0,0.0,0.0,0.0,1.0,0.0,0.0,0.0,1.0
1481797682775244432,238,1481797682773613571,,1.7703422308,-7.37251186371,-152.463119507,0.0014380000066,1.0,0.0,0.0,0.0,1.0,0.0,0.0,0.0,1.0,-1.8292683363,1.52439022064,1.76829278469,1.0,0.0,0.0,0.0,1.0,0.0,0.0,0.0,1.0,0.0622492431641,-0.521935925381,10.1131078125,1.0,0.0,0.0,0.0,1.0,0.0,0.0,0.0,1.0
1481797682817478655,239,1481797682815199105,,1.80962824821,-7.37357807159,-152.313400269,0.00119800004177,1.0,0.0,0.0,0.0,1.0,0.0,0.0,0.0,1.0,-2.25609779358,1.76829278469,1.64634156227,1.0,0.0,0.0,0.0,1.0,0.0,0.0,0.0,1.0,0.0430956298828,-0.598550451572,10.2423947021,1.0,0.0,0.0,0.0,1.0,0.0,0.0,0.0,1.0
1481797682859260175,240,1481797682857512128,,1.84184396267,-7.37530708313,-152.163833618,0.000964000006206,1.0,0.0,0.0,0.0,1.0,0.0,0.0,0.0,1.0,-2.43902444839,1.40243899822,1.8292683363,1.0,0.0,0.0,0.0,1.0,0.0,0.0,0.0,1.0,-0.0861912597656,-0.512359155273,10.1945106689,1.0,0.0,0.0,0.0,1.0,0.0,0.0,0.0,1.0
1481797682901314505,241,1481797682899429376,,1.86815297604,-7.37446928024,-152.016815186,0.000999000039883,1.0,0.0,0.0,0.0,1.0,0.0,0.0,0.0,1.0,-2.13414645195,0.792682945728,1.76829278469,1.0,0.0,0.0,0.0,1.0,0.0,0.0,0.0,1.0,0.00957680664062,-0.622492431641,10.285490332,1.0,0.0,0.0,0.0,1.0,0.0,0.0,0.0,1.0
1481797682942900403,242,1481797682941161575,,1.86533117294,-7.37286996841,-151.865859985,0.00097499997355,1.0,0.0,0.0,0.0,1.0,0.0,0.0,0.0,1.0,-2.25609779358,0.792682945728,1.70731711388,1.0,0.0,0.0,0.0,1.0,0.0,0.0,0.0,1.0,0.00478840332031,-0.521935925381,10.1178962158,1.0,0.0,0.0,0.0,1.0,0.0,0.0,0.0,1.0
1481797682984737444,243,1481797682983085541,,1.86293447018,-7.37374925613,-151.71244812,0.000999000039883,1.0,0.0,0.0,0.0,1.0,0.0,0.0,0.0,1.0,-2.13414645195,0.670731723309,1.95121955872,1.0,0.0,0.0,0.0,1.0,0.0,0.0,0.0,1.0,0.110133276367,-0.598550451572,10.0939541992,1.0,0.0,0.0,0.0,1.0,0.0,0.0,0.0,1.0
1481797683027455409,244,1481797683025731216,,1.84837448597,-7.36101102829,-151.563339233,0.00130300002638,1.0,0.0,0.0,0.0,1.0,0.0,0.0,0.0,1.0,-1.95121955872,0.975609779358,1.8292683363,1.0,0.0,0.0,0.0,1.0,0.0,0.0,0.0,1.0,0.0191536132812,-0.497993945312,10.0508585693,1.0,0.0,0.0,0.0,1.0,0.0,0.0,0.0,1.0
1481797683072127669,245,1481797683067996115,,1.86925697327,-7.35578393936,-151.392623901,0.000973000016529,1.0,0.0,0.0,0.0,1.0,0.0,0.0,0.0,1.0,-2.31707310677,1.03658533096,2.25609779358,1.0,0.0,0.0,0.0,1.0,0.0,0.0,0.0,1.0,0.162805712891,-0.569819995117,10.0508585693,1.0,0.0,0.0,0.0,1.0,0.0,0.0,0.0,1.0
1481797683111729170,246,1481797683110053205,,1.87060773373,-7.37275934219,-151.248550415,0.000990999978967,1.0,0.0,0.0,0.0,1.0,0.0,0.0,0.0,1.0,-2.07317066193,1.2804877758,1.2804877758,1.0,0.0,0.0,0.0,1.0,0.0,0.0,0.0,1.0,-0.0191536132812,-0.569819995117,10.2423947021,1.0,0.0,0.0,0.0,1.0,0.0,0.0,0.0,1.0
1481797683154317189,247,1481797683153228247,,1.89760994911,-7.3704366684,-151.095458984,0.00118699995801,1.0,0.0,0.0,0.0,1.0,0.0,0.0,0.0,1.0,-2.31707310677,1.46341466904,2.13414645195,1.0,0.0,0.0,0.0,1.0,0.0,0.0,0.0,1.0,0.0430956298828,-0.445321508789,10.0843773926,1.0,0.0,0.0,0.0,1.0,0.0,0.0,0.0,1.0
1481797683196062200,248,1481797683194704251,,1.9290241003,-7.36863517761,-150.937438965,0.00105399999302,1.0,0.0,0.0,0.0,1.0,0.0,0.0,0.0,1.0,-2.19512200356,1.15853655338,1.8902438879,1.0,0.0,0.0,0.0,1.0,0.0,0.0,0.0,1.0,0.0718260498047,-0.517147558594,10.1753570557,1.0,0.0,0.0,0.0,1.0,0.0,0.0,0.0,1.0
1481797683239722391,249,1481797683236761028,,1.9424315691,-7.36105823517,-150.788497925,0.00097499997355,1.0,0.0,0.0,0.0,1.0,0.0,0.0,0.0,1.0,-2.31707310677,0.914634168148,1.58536589146,1.0,0.0,0.0,0.0,1.0,0.0,0.0,0.0,1.0,0.0957680664062,-0.541089611728,10.1514150391,1.0,0.0,0.0,0.0,1.0,0.0,0.0,0.0,1.0
1481797683280990378,250,1481797683278928637,,1.94010710716,-7.37058973312,-150.636962891,0.00100599997677,1.0,0.0,0.0,0.0,1.0,0.0,0.0,0.0,1.0,-2.01219511032,0.304878056049,1.64634156227,1.0,0.0,0.0,0.0,1.0,0.0,0.0,0.0,1.0,0.0143652099609,-0.526724328702,10.1609918457,1.0,0.0,0.0,0.0,1.0,0.0,0.0,0.0,1.0
1481797683321968264,251,1481797683320678283,,1.93074584007,-7.36311340332,-150.48210144,0.00102900003549,1.0,0.0,0.0,0.0,1.0,0.0,0.0,0.0,1.0,-2.31707310677,0.548780500889,1.70731711388,1.0,0.0,0.0,0.0,1.0,0.0,0.0,0.0,1.0,-0.0430956298828,-0.488417138672,10.1418382324,1.0,0.0,0.0,0.0,1.0,0.0,0.0,0.0,1.0
1481797683365006121,252,1481797683362816466,,1.91311943531,-7.36242580414,-150.326538086,0.00126299995463,1.0,0.0,0.0,0.0,1.0,0.0,0.0,0.0,1.0,-2.13414645195,0.12195122242,1.95121955872,1.0,0.0,0.0,0.0,1.0,0.0,0.0,0.0,1.0,0.0909796630859,-0.569819995117,10.2136642822,1.0,0.0,0.0,0.0,1.0,0.0,0.0,0.0,1.0
1481797683406448584,253,1481797683404751474,,1.8857601881,-7.35964202881,-150.172363281,0.000986999948509,1.0,0.0,0.0,0.0,1.0,0.0,0.0,0.0,1.0,-1.95121955872,0.487804889679,1.58536589146,1.0,0.0,0.0,0.0,1.0,0.0,0.0,0.0,1.0,0.0143652099609,-0.445321508789,10.1418382324,1.0,0.0,0.0,0.0,1.0,0.0,0.0,0.0,1.0
1481797683448603954,254,1481797683446578671,,1.88613629341,-7.35857582092,-150.014602661,0.00112200004514,1.0,0.0,0.0,0.0,1.0,0.0,0.0,0.0,1.0,-2.25609779358,0.731707334518,2.13414645195,1.0,0.0,0.0,0.0,1.0,0.0,0.0,0.0,1.0,0.0526724365234,-0.622492431641,10.1466266357,1.0,0.0,0.0,0.0,1.0,0.0,0.0,0.0,1.0
1481797683491328898,255,1481797683489190127,,1.88454735279,-7.36235523224,-149.847366333,0.00103199994192,1.0,0.0,0.0,0.0,1.0,0.0,0.0,0.0,1.0,-2.37804889679,0.792682945728,1.95121955872,1.0,0.0,0.0,0.0,1.0,0.0,0.0,0.0,1.0,-0.0287304199219,-0.579396801758,10.2040874756,1.0,0.0,0.0,0.0,1.0,0.0,0.0,0.0,1.0
1481797683534291703,256,1481797683532355534,,1.87917530537,-7.35266685486,-149.696273804,0.00278500001878,1.0,0.0,0.0,0.0,1.0,0.0,0.0,0.0,1.0,-2.07317066193,0.670731723309,1.8292683363,1.0,0.0,0.0,0.0,1.0,0.0,0.0,0.0,1.0,-0.0287304199219,-0.531512805087,10.2232410889,1.0,0.0,0.0,0.0,1.0,0.0,0.0,0.0,1.0
1481797683576099630,257,1481797683574171742,,1.88187980652,-7.3564696312,-149.537902832,0.00123399996664,1.0,0.0,0.0,0.0,1.0,0.0,0.0,0.0,1.0,-2.07317066193,1.03658533096,1.8292683363,1.0,0.0,0.0,0.0,1.0,0.0,0.0,0.0,1.0,0.110133276367,-0.60812722168,10.1466266357,1.0,0.0,0.0,0.0,1.0,0.0,0.0,0.0,1.0
1481797683618073908,258,1481797683616121645,,1.88019263744,-7.35947847366,-149.395095825,0.00103499996476,1.0,0.0,0.0,0.0,1.0,0.0,0.0,0.0,1.0,-2.07317066193,1.2804877758,1.52439022064,1.0,0.0,0.0,0.0,1.0,0.0,0.0,0.0,1.0,0.0287304199219,-0.569819995117,10.2040874756,1.0,0.0,0.0,0.0,1.0,0.0,0.0,0.0,1.0
1481797683660601772,259,1481797683658461648,,1.91138589382,-7.35675525665,-149.247543335,0.00106000003871,1.0,0.0,0.0,0.0,1.0,0.0,0.0,0.0,1.0,-2.25609779358,1.8292683363,2.25609779358,1.0,0.0,0.0,0.0,1.0,0.0,0.0,0.0,1.0,0.00478840332031,-0.550666381836,10.180145459,1.0,0.0,0.0,0.0,1.0,0.0,0.0,0.0,1.0
1481797683702462667,260,1481797683701059875,,1.96369731426,-7.36053943634,-149.093734741,0.00110700004734,1.0,0.0,0.0,0.0,1.0,0.0,0.0,0.0,1.0,-1.8902438879,2.13414645195,1.8902438879,1.0,0.0,0.0,0.0,1.0,0.0,0.0,0.0,1.0,0.0143652099609,-0.651222851562,10.0700121826,1.0,0.0,0.0,0.0,1.0,0.0,0.0,0.0,1.0
1481797683744350592,261,1481797683742973946,,2.0260848999,-7.35582494736,-148.939941406,0.00144100002944,1.0,0.0,0.0,0.0,1.0,0.0,0.0,0.0,1.0,-1.95121955872,2.19512200356,1.95121955872,1.0,0.0,0.0,0.0,1.0,0.0,0.0,0.0,1.0,-0.0430956298828,-0.536301208408,10.1609918457,1.0,0.0,0.0,0.0,1.0,0.0,0.0,0.0,1.0
1481797683786289923,262,1481797683784851507,,2.0636575222,-7.35891771317,-148.783309937,0.0011269999668,1.0,0.0,0.0,0.0,1.0,0.0,0.0,0.0,1.0,-2.25609779358,1.40243899822,1.70731711388,1.0,0.0,0.0,0.0,1.0,0.0,0.0,0.0,1.0,-0.0143652099609,-0.632069238281,10.2376062988,1.0,0.0,0.0,0.0,1.0,0.0,0.0,0.0,1.0
1481797683828965598,263,1481797683826750526,,2.08443140984,-7.35453653336,-148.633758545,0.00101200002246,1.0,0.0,0.0,0.0,1.0,0.0,0.0,0.0,1.0,-2.13414645195,0.792682945728,1.76829278469,1.0,0.0,0.0,0.0,1.0,0.0,0.0,0.0,1.0,-0.0526724365234,-0.507570751953,10.1226846191,1.0,0.0,0.0,0.0,1.0,0.0,0.0,0.0,1.0
1481797683870933001,264,1481797683869166985,,2.08594727516,-7.35471916199,-148.479797363,0.00104100001045,1.0,0.0,0.0,0.0,1.0,0.0,0.0,0.0,1.0,-2.13414645195,0.365853667259,1.64634156227,1.0,0.0,0.0,0.0,1.0,0.0,0.0,0.0,1.0,-0.00478840332031,-0.61770402832,10.1226846191,1.0,0.0,0.0,0.0,1.0,0.0,0.0,0.0,1.0
1481797683913620081,265,1481797683912223071,,2.07672715187,-7.35336351395,-148.324401855,0.00120199995581,1.0,0.0,0.0,0.0,1.0,0.0,0.0,0.0,1.0,-2.13414645195,0.609756112099,1.8292683363,1.0,0.0,0.0,0.0,1.0,0.0,0.0,0.0,1.0,-0.0239420166016,-0.531512805087,10.0412817627,1.0,0.0,0.0,0.0,1.0,0.0,0.0,0.0,1.0
1481797683956251902,266,1481797683954171204,,2.06839752197,-7.34910964966,-148.16166687,0.00146199995652,1.0,0.0,0.0,0.0,1.0,0.0,0.0,0.0,1.0,-2.01219511032,0.609756112099,2.01219511032,1.0,0.0,0.0,0.0,1.0,0.0,0.0,0.0,1.0,0.119710083008,-0.565031591797,10.2136642822,1.0,0.0,0.0,0.0,1.0,0.0,0.0,0.0,1.0
1481797683998257795,267,1481797683996897711,,2.06338405609,-7.35018777847,-148.000152588,0.00202800007537,1.0,0.0,0.0,0.0,1.0,0.0,0.0,0.0,1.0,-2.37804889679,0.853658556938,1.95121955872,1.0,0.0,0.0,0.0,1.0,0.0,0.0,0.0,1.0,0.0335188255255,-0.584185168546,10.0508585693,1.0,0.0,0.0,0.0,1.0,0.0,0.0,0.0,1.0
1481797684039888224,268,1481797684038038876,,2.05216956139,-7.35325670242,-147.843795776,0.0010150000453,1.0,0.0,0.0,0.0,1.0,0.0,0.0,0.0,1.0,-1.8902438879,0.792682945728,1.76829278469,1.0,0.0,0.0,0.0,1.0,0.0,0.0,0.0,1.0,0.0430956298828,-0.565031591797,10.0556469727,1.0,0.0,0.0,0.0,1.0,0.0,0.0,0.0,1.0
1481797684083703517,269,1481797684080440961,,2.05871558189,-7.34423208237,-147.687042236,0.00103499996476,1.0,0.0,0.0,0.0,1.0,0.0,0.0,0.0,1.0,-2.13414645195,0.975609779358,1.8902438879,1.0,0.0,0.0,0.0,1.0,0.0,0.0,0.0,1.0,0.0191536132812,-0.550666381836,10.2280294922,1.0,0.0,0.0,0.0,1.0,0.0,0.0,0.0,1.0
1481797684124463230,270,1481797684122316022,,2.07652568817,-7.34480762482,-147.529708862,0.00128800002858,1.0,0.0,0.0,0.0,1.0,0.0,0.0,0.0,1.0,-2.01219511032,1.52439022064,2.01219511032,1.0,0.0,0.0,0.0,1.0,0.0,0.0,0.0,1.0,-0.00957680664062,-0.574608398438,10.1274730225,1.0,0.0,0.0,0.0,1.0,0.0,0.0,0.0,1.0
1481797684166225115,271,1481797684164276082,,2.11295151711,-7.34346437454,-147.363830566,0.00111599999946,1.0,0.0,0.0,0.0,1.0,0.0,0.0,0.0,1.0,-2.01219511032,1.34146344662,2.19512200356,1.0,0.0,0.0,0.0,1.0,0.0,0.0,0.0,1.0,0.0143652099609,-0.46447512207,10.1945106689,1.0,0.0,0.0,0.0,1.0,0.0,0.0,0.0,1.0
1481797684208451942,272,1481797684206472023,,2.14256596565,-7.34881258011,-147.21685791,0.00102399999741,1.0,0.0,0.0,0.0,1.0,0.0,0.0,0.0,1.0,-2.19512200356,1.8292683363,1.76829278469,1.0,0.0,0.0,0.0,1.0,0.0,0.0,0.0,1.0,-0.00478840332031,-0.603338854892,10.2184526855,1.0,0.0,0.0,0.0,1.0,0.0,0.0,0.0,1.0
1481797684249984300,273,1481797684248191462,,2.19370365143,-7.34332609177,-147.066955566,0.00101999996696,1.0,0.0,0.0,0.0,1.0,0.0,0.0,0.0,1.0,-1.95121955872,2.43902444839,2.19512200356,1.0,0.0,0.0,0.0,1.0,0.0,0.0,0.0,1.0,0.00957680664062,-0.517147558594,10.1178962158,1.0,0.0,0.0,0.0,1.0,0.0,0.0,0.0,1.0
1481797684293828759,274,1481797684291267963,,2.2606523037,-7.34738779068,-146.906814575,0.0011340000201,1.0,0.0,0.0,0.0,1.0,0.0,0.0,0.0,1.0,-2.31707310677,2.07317066193,2.01219511032,1.0,0.0,0.0,0.0,1.0,0.0,0.0,0.0,1.0,-0.0957680664062,-0.670376464844,10.3046439453,1.0,0.0,0.0,0.0,1.0,0.0,0.0,0.0,1.0
1481797684335531479,275,1481797684333403021,,2.31781983376,-7.34430027008,-146.75819397,0.00130700005684,1.0,0.0,0.0,0.0,1.0,0.0,0.0,0.0,1.0,-2.25609779358,2.25609779358,1.70731711388,1.0,0.0,0.0,0.0,1.0,0.0,0.0,0.0,1.0,0.0383072265625,-0.555454785156,9.98382092285,1.0,0.0,0.0,0.0,1.0,0.0,0.0,0.0,1.0
1481797684376373170,276,1481797684374775173,,2.37165951729,-7.34046030045,-146.613143921,0.00117599999066,1.0,0.0,0.0,0.0,1.0,0.0,0.0,0.0,1.0,-2.37804889679,2.13414645195,2.07317066193,1.0,0.0,0.0,0.0,1.0,0.0,0.0,0.0,1.0,-0.0191536132812,-0.474051928711,10.2519715088,1.0,0.0,0.0,0.0,1.0,0.0,0.0,0.0,1.0
1481797684418151566,277,1481797684416367946,,2.42243766785,-7.34730195999,-146.46446228,0.00107799994294,1.0,0.0,0.0,0.0,1.0,0.0,0.0,0.0,1.0,-2.31707310677,2.19512200356,1.64634156227,1.0,0.0,0.0,0.0,1.0,0.0,0.0,0.0,1.0,-0.124498486328,-0.641646044922,10.2088758789,1.0,0.0,0.0,0.0,1.0,0.0,0.0,0.0,1.0
1481797684460899374,278,1481797684459023569,,2.48786091805,-7.34370136261,-146.315460205,0.00118200003635,1.0,0.0,0.0,0.0,1.0,0.0,0.0,0.0,1.0,-2.13414645195,2.19512200356,1.64634156227,1.0,0.0,0.0,0.0,1.0,0.0,0.0,0.0,1.0,-0.0574608398438,-0.593762048251,10.2280294922,1.0,0.0,0.0,0.0,1.0,0.0,0.0,0.0,1.0
1481797684503876242,279,1481797684500859255,,2.55121827126,-7.34424304962,-146.17199707,0.0012529999949,1.0,0.0,0.0,0.0,1.0,0.0,0.0,0.0,1.0,-2.25609779358,2.5,1.64634156227,1.0,0.0,0.0,0.0,1.0,0.0,0.0,0.0,1.0,-0.114921679688,-0.60812722168,10.1035310059,1.0,0.0,0.0,0.0,1.0,0.0,0.0,0.0,1.0
1481797684544759234,280,1481797684543043322,,2.62593150139,-7.34913158417,-146.029983521,0.00133100000676,1.0,0.0,0.0,0.0,1.0,0.0,0.0,0.0,1.0,-1.8902438879,2.5,1.52439022064,1.0,0.0,0.0,0.0,1.0,0.0,0.0,0.0,1.0,-0.15801730957,-0.521935925381,10.1035310059,1.0,0.0,0.0,0.0,1.0,0.0,0.0,0.0,1.0
1481797684586561901,281,1481797684584819635,,2.69895005226,-7.35330200195,-145.884872437,0.00101300003007,1.0,0.0,0.0,0.0,1.0,0.0,0.0,0.0,1.0,-2.19512200356,2.19512200356,1.64634156227,1.0,0.0,0.0,0.0,1.0,0.0,0.0,0.0,1.0,-0.15322890625,-0.497993945312,10.165780249,1.0,0.0,0.0,0.0,1.0,0.0,0.0,0.0,1.0
1481797684629125962,282,1481797684627319739,,2.74175357819,-7.35254049301,-145.735778809,0.00101899995934,1.0,0.0,0.0,0.0,1.0,0.0,0.0,0.0,1.0,-2.25609779358,0.853658556938,1.8292683363,1.0,0.0,0.0,0.0,1.0,0.0,0.0,0.0,1.0,-0.15801730957,-0.474051928711,10.0652237793,1.0,0.0,0.0,0.0,1.0,0.0,0.0,0.0,1.0
1481797684671333049,283,1481797684669594950,,2.73894453049,-7.34972333908,-145.578765869,0.00107600004412,1.0,0.0,0.0,0.0,1.0,0.0,0.0,0.0,1.0,-2.13414645195,0.0609756112099,1.8292683363,1.0,0.0,0.0,0.0,1.0,0.0,0.0,0.0,1.0,-0.172382519531,-0.61770402832,10.1609918457,1.0,0.0,0.0,0.0,1.0,0.0,0.0,0.0,1.0
1481797684714187679,284,1481797684712289166,,2.69205641747,-7.34587574005,-145.413314819,0.00117699999828,1.0,0.0,0.0,0.0,1.0,0.0,0.0,0.0,1.0,-2.13414645195,-0.731707334518,1.76829278469,1.0,0.0,0.0,0.0,1.0,0.0,0.0,0.0,1.0,-0.0239420166016,-0.560243188477,10.2040874756,1.0,0.0,0.0,0.0,1.0,0.0,0.0,0.0,1.0
1481797684755828213,285,1481797684754168393,,2.6242992878,-7.34367322922,-145.252258301,0.00134399998933,1.0,0.0,0.0,0.0,1.0,0.0,0.0,0.0,1.0,-2.19512200356,-0.365853667259,1.64634156227,1.0,0.0,0.0,0.0,1.0,0.0,0.0,0.0,1.0,-0.067037651051,-0.507570751953,10.165780249,1.0,0.0,0.0,0.0,1.0,0.0,0.0,0.0,1.0
1481797684797309842,286,1481797684796274909,,2.57040548325,-7.34227228165,-145.096511841,0.00144000002183,1.0,0.0,0.0,0.0,1.0,0.0,0.0,0.0,1.0,-1.8902438879,0.12195122242,1.64634156227,1.0,0.0,0.0,0.0,1.0,0.0,0.0,0.0,1.0,-0.0814028564453,-0.565031591797,10.1562034424,1.0,0.0,0.0,0.0,1.0,0.0,0.0,0.0,1.0
1481797684839505419,287,1481797684838413717,,2.54690146446,-7.34439325333,-144.940719604,0.00101000000723,1.0,0.0,0.0,0.0,1.0,0.0,0.0,0.0,1.0,-2.01219511032,0.914634168148,1.76829278469,1.0,0.0,0.0,0.0,1.0,0.0,0.0,0.0,1.0,-0.0335188255255,-0.521935925381,10.1226846191,1.0,0.0,0.0,0.0,1.0,0.0,0.0,0.0,1.0
1481797684883454564,288,1481797684880583461,,2.55764698982,-7.34362268448,-144.791259766,0.000990999978967,1.0,0.0,0.0,0.0,1.0,0.0,0.0,0.0,1.0,-2.25609779358,1.76829278469,1.64634156227,1.0,0.0,0.0,0.0,1.0,0.0,0.0,0.0,1.0,-0.076614453125,-0.545877978516,10.1753570557,1.0,0.0,0.0,0.0,1.0,0.0,0.0,0.0,1.0
1481797684925779098,289,1481797684923452205,,2.60402488708,-7.34618806839,-144.64175415,0.00109000003431,1.0,0.0,0.0,0.0,1.0,0.0,0.0,0.0,1.0,-2.01219511032,1.76829278469,1.76829278469,1.0,0.0,0.0,0.0,1.0,0.0,0.0,0.0,1.0,-0.0478840332031,-0.579396801758,10.0939541992,1.0,0.0,0.0,0.0,1.0,0.0,0.0,0.0,1.0
1481797684967671659,290,1481797684965962934,,2.65670609474,-7.34405136108,-144.496704102,0.000969999993686,1.0,0.0,0.0,0.0,1.0,0.0,0.0,0.0,1.0,-2.37804889679,1.70731711388,1.52439022064,1.0,0.0,0.0,0.0,1.0,0.0,0.0,0.0,1.0,-0.191536132812,-0.517147558594,10.0508585693,1.0,0.0,0.0,0.0,1.0,0.0,0.0,0.0,1.0
1481797685013146198,291,1481797685007892734,,2.69033670425,-7.34018135071,-144.349624634,0.000967999978457,1.0,0.0,0.0,0.0,1.0,0.0,0.0,0.0,1.0,-2.07317066193,0.914634168148,1.64634156227,1.0,0.0,0.0,0.0,1.0,0.0,0.0,0.0,1.0,-0.191536132812,-0.641646044922,10.2184526855,1.0,0.0,0.0,0.0,1.0,0.0,0.0,0.0,1.0
1481797685053791954,292,1481797685050443670,,2.69260501862,-7.34463357925,-144.195144653,0.000976999988779,1.0,0.0,0.0,0.0,1.0,0.0,0.0,0.0,1.0,-2.19512200356,0.18292683363,1.76829278469,1.0,0.0,0.0,0.0,1.0,0.0,0.0,0.0,1.0,-0.129286889648,-0.541089611728,10.0508585693,1.0,0.0,0.0,0.0,1.0,0.0,0.0,0.0,1.0
1481797685094955463,293,1481797685092234358,,2.6670498848,-7.34058046341,-144.037445068,0.00104999996256,1.0,0.0,0.0,0.0,1.0,0.0,0.0,0.0,1.0,-2.25609779358,-0.12195122242,1.58536589146,1.0,0.0,0.0,0.0,1.0,0.0,0.0,0.0,1.0,-0.143652099609,-0.565031591797,10.1609918457,1.0,0.0,0.0,0.0,1.0,0.0,0.0,0.0,1.0
1481797685135879809,294,1481797685134411914,,2.62010002136,-7.33891534805,-143.879837036,0.00109399994835,1.0,0.0,0.0,0.0,1.0,0.0,0.0,0.0,1.0,-2.07317066193,0.0,1.46341466904,1.0,0.0,0.0,0.0,1.0,0.0,0.0,0.0,1.0,-0.105344873047,-0.574608398438,10.2136642822,1.0,0.0,0.0,0.0,1.0,0.0,0.0,0.0,1.0
1481797685177708361,295,1481797685176362339,,2.58606314659,-7.3335647583,-143.722244263,0.000967999978457,1.0,0.0,0.0,0.0,1.0,0.0,0.0,0.0,1.0,-2.31707310677,0.426829278469,1.52439022064,1.0,0.0,0.0,0.0,1.0,0.0,0.0,0.0,1.0,-0.0526724365234,-0.565031591797,10.3190091553,1.0,0.0,0.0,0.0,1.0,0.0,0.0,0.0,1.0
1481797685219691493,296,1481797685218393283,,2.55873680115,-7.33942174911,-143.56803894,0.0009710000013,1.0,0.0,0.0,0.0,1.0,0.0,0.0,0.0,1.0,-2.25609779358,0.487804889679,1.76829278469,1.0,0.0,0.0,0.0,1.0,0.0,0.0,0.0,1.0,-0.0478840332031,-0.493205541992,10.180145459,1.0,0.0,0.0,0.0,1.0,0.0,0.0,0.0,1.0
1481797685261915455,297,1481797685260404644,,2.54701304436,-7.33651685715,-143.418945312,0.000990999978967,1.0,0.0,0.0,0.0,1.0,0.0,0.0,0.0,1.0,-2.13414645195,0.853658556938,1.58536589146,1.0,0.0,0.0,0.0,1.0,0.0,0.0,0.0,1.0,0.0574608398438,-0.565031591797,10.0987426025,1.0,0.0,0.0,0.0,1.0,0.0,0.0,0.0,1.0
1481797685304317696,298,1481797685302922248,,2.56057667732,-7.34364318848,-143.265289307,0.0010000000475,1.0,0.0,0.0,0.0,1.0,0.0,0.0,0.0,1.0,-2.01219511032,1.46341466904,1.8292683363,1.0,0.0,0.0,0.0,1.0,0.0,0.0,0.0,1.0,-0.0861912597656,-0.622492431641,10.165780249,1.0,0.0,0.0,0.0,1.0,0.0,0.0,0.0,1.0
1481797685347712006,299,1481797685345541673,,2.58703327179,-7.33906936646,-143.11164856,0.00111800001469,1.0,0.0,0.0,0.0,1.0,0.0,0.0,0.0,1.0,-2.56097555161,1.2804877758,1.64634156227,1.0,0.0,0.0,0.0,1.0,0.0,0.0,0.0,1.0,-0.177170922852,-0.45968671875,10.1753570557,1.0,0.0,0.0,0.0,1.0,0.0,0.0,0.0,1.0
1481797685389246968,300,1481797685387887404,,2.61112427711,-7.33696556091,-142.960144043,0.0009710000013,1.0,0.0,0.0,0.0,1.0,0.0,0.0,0.0,1.0,-2.19512200356,0.914634168148,1.70731711388,1.0,0.0,0.0,0.0,1.0,0.0,0.0,0.0,1.0,-0.124498486328,-0.60812722168,10.0987426025,1.0,0.0,0.0,0.0,1.0,0.0,0.0,0.0,1.0
1481797685431268797,301,1481797685429697727,,2.6163175106,-7.34143209457,-142.810913086,0.00100499996915,1.0,0.0,0.0,0.0,1.0,0.0,0.0,0.0,1.0,-1.95121955872,0.914634168148,1.40243899822,1.0,0.0,0.0,0.0,1.0,0.0,0.0,0.0,1.0,-0.067037651051,-0.60812722168,10.1849338623,1.0,0.0,0.0,0.0,1.0,0.0,0.0,0.0,1.0
1481797685473432969,302,1481797685472103040,,2.60405826569,-7.3335776329,-142.657211304,0.00111399998423,1.0,0.0,0.0,0.0,1.0,0.0,0.0,0.0,1.0,-2.13414645195,0.18292683363,2.01219511032,1.0,0.0,0.0,0.0,1.0,0.0,0.0,0.0,1.0,-0.0526724365234,-0.521935925381,10.1322614258,1.0,0.0,0.0,0.0,1.0,0.0,0.0,0.0,1.0
1481797685515190636,303,1481797685513588055,,2.58470773697,-7.33879470825,-142.503112793,0.00115300004836,1.0,0.0,0.0,0.0,1.0,0.0,0.0,0.0,1.0,-2.07317066193,0.243902444839,1.76829278469,1.0,0.0,0.0,0.0,1.0,0.0,0.0,0.0,1.0,-0.0909796630859,-0.550666381836,10.2136642822,1.0,0.0,0.0,0.0,1.0,0.0,0.0,0.0,1.0
1481797685557172206,304,1481797685555828059,,2.56423568726,-7.33596038818,-142.346054077,0.00141699996311,1.0,0.0,0.0,0.0,1.0,0.0,0.0,0.0,1.0,-2.25609779358,0.609756112099,1.8292683363,1.0,0.0,0.0,0.0,1.0,0.0,0.0,0.0,1.0,-0.129286889648,-0.545877978516,10.1274730225,1.0,0.0,0.0,0.0,1.0,0.0,0.0,0.0,1.0
1481797685599559238,305,1481797685598239726,,2.55510020256,-7.33568191528,-142.189727783,0.000990999978967,1.0,0.0,0.0,0.0,1.0,0.0,0.0,0.0,1.0,-2.07317066193,0.853658556938,1.70731711388,1.0,0.0,0.0,0.0,1.0,0.0,0.0,0.0,1.0,-0.119710083008,-0.497993945312,10.1753570557,1.0,0.0,0.0,0.0,1.0,0.0,0.0,0.0,1.0
1481797685642071998,306,1481797685640551656,,2.55268669128,-7.33167600632,-142.036834717,0.00105700001586,1.0,0.0,0.0,0.0,1.0,0.0,0.0,0.0,1.0,-1.8902438879,0.853658556938,1.58536589146,1.0,0.0,0.0,0.0,1.0,0.0,0.0,0.0,1.0,-0.114921679688,-0.536301208408,10.1753570557,1.0,0.0,0.0,0.0,1.0,0.0,0.0,0.0,1.0
1481797685684973086,307,1481797685683271548,,2.56001877785,-7.33364248276,-141.883026123,0.00118899997324,1.0,0.0,0.0,0.0,1.0,0.0,0.0,0.0,1.0,-2.13414645195,1.03658533096,1.76829278469,1.0,0.0,0.0,0.0,1.0,0.0,0.0,0.0,1.0,-0.0430956298828,-0.579396801758,10.1322614258,1.0,0.0,0.0,0.0,1.0,0.0,0.0,0.0,1.0
1481797685727230016,308,1481797685725454365,,2.5717523098,-7.33224058151,-141.731750488,0.00141999998596,1.0,0.0,0.0,0.0,1.0,0.0,0.0,0.0,1.0,-2.19512200356,1.2195122242,1.64634156227,1.0,0.0,0.0,0.0,1.0,0.0,0.0,0.0,1.0,-0.0861912597656,-0.612915625,10.1849338623,1.0,0.0,0.0,0.0,1.0,0.0,0.0,0.0,1.0
1481797685769621997,309,1481797685767295729,,2.58439326286,-7.33426475525,-141.582199097,0.000969999993686,1.0,0.0,0.0,0.0,1.0,0.0,0.0,0.0,1.0,-2.31707310677,1.2195122242,1.58536589146,1.0,0.0,0.0,0.0,1.0,0.0,0.0,0.0,1.0,-0.138863696289,-0.584185168546,10.1131078125,1.0,0.0,0.0,0.0,1.0,0.0,0.0,0.0,1.0
1481797685811957572,310,1481797685809329225,,2.59663057327,-7.33216428757,-141.427612305,0.00117699999828,1.0,0.0,0.0,0.0,1.0,0.0,0.0,0.0,1.0,-2.13414645195,0.914634168148,1.95121955872,1.0,0.0,0.0,0.0,1.0,0.0,0.0,0.0,1.0,-0.124498486328,-0.603338854892,10.0269165527,1.0,0.0,0.0,0.0,1.0,0.0,0.0,0.0,1.0
1481797685853243058,311,1481797685851762976,,2.5977332592,-7.33004617691,-141.27180481,0.00109100004192,1.0,0.0,0.0,0.0,1.0,0.0,0.0,0.0,1.0,-2.13414645195,0.792682945728,1.64634156227,1.0,0.0,0.0,0.0,1.0,0.0,0.0,0.0,1.0,-0.076614453125,-0.60812722168,10.0652237793,1.0,0.0,0.0,0.0,1.0,0.0,0.0,0.0,1.0
1481797685895777901,312,1481797685894070687,,2.58964085579,-7.32947397232,-141.117507935,0.00151800003368,1.0,0.0,0.0,0.0,1.0,0.0,0.0,0.0,1.0,-2.01219511032,0.792682945728,1.70731711388,1.0,0.0,0.0,0.0,1.0,0.0,0.0,0.0,1.0,-0.0957680664062,-0.507570751953,10.1466266357,1.0,0.0,0.0,0.0,1.0,0.0,0.0,0.0,1.0
1481797685937153907,313,1481797685935612055,,2.57335758209,-7.32727336884,-140.966018677,0.00123900000472,1.0,0.0,0.0,0.0,1.0,0.0,0.0,0.0,1.0,-2.13414645195,0.853658556938,1.64634156227,1.0,0.0,0.0,0.0,1.0,0.0,0.0,0.0,1.0,0.0287304199219,-0.526724328702,10.1753570557,1.0,0.0,0.0,0.0,1.0,0.0,0.0,0.0,1.0
1481797685979745885,314,1481797685978132784,,2.56930780411,-7.32794618607,-140.817260742,0.000981000019237,1.0,0.0,0.0,0.0,1.0,0.0,0.0,0.0,1.0,-2.19512200356,0.914634168148,1.52439022064,1.0,0.0,0.0,0.0,1.0,0.0,0.0,0.0,1.0,-0.0191536132812,-0.641646044922,10.1178962158,1.0,0.0,0.0,0.0,1.0,0.0,0.0,0.0,1.0
1481797686022741815,315,1481797686020667366,,2.57719707489,-7.32765626907,-140.666748047,0.00101799995173,1.0,0.0,0.0,0.0,1.0,0.0,0.0,0.0,1.0,-2.01219511032,1.15853655338,1.64634156227,1.0,0.0,0.0,0.0,1.0,0.0,0.0,0.0,1.0,-0.0478840332031,-0.555454785156,10.2519715088,1.0,0.0,0.0,0.0,1.0,0.0,0.0,0.0,1.0
1481797686065229940,316,1481797686063149918,,2.62461876869,-7.32134103775,-140.528106689,0.0010300000431,1.0,0.0,0.0,0.0,1.0,0.0,0.0,0.0,1.0,-2.19512200356,-3.7804877758,0.18292683363,1.0,0.0,0.0,0.0,1.0,0.0,0.0,0.0,1.0,-0.411802685547,-0.91458503418,10.0173397461,1.0,0.0,0.0,0.0,1.0,0.0,0.0,0.0,1.0
1481797686107607442,317,1481797686105369818,,2.4595041275,-7.31356716156,-140.349151611,0.00101799995173,1.0,0.0,0.0,0.0,1.0,0.0,0.0,0.0,1.0,-2.43902444839,-1.8292683363,3.47560977936,1.0,0.0,0.0,0.0,1.0,0.0,0.0,0.0,1.0,0.565031591797,-0.809240161133,9.7348239502,1.0,0.0,0.0,0.0,1.0,0.0,0.0,0.0,1.0
1481797686149918434,318,1481797686148078200,,2.3583085537,-7.32896900177,-140.167144775,0.00101400003769,1.0,0.0,0.0,0.0,1.0,0.0,0.0,0.0,1.0,-3.23170733452,18.3536586761,5.18292713165,1.0,0.0,0.0,0.0,1.0,0.0,0.0,0.0,1.0,0.895431420898,-0.905008227539,9.97903251953,1.0,0.0,0.0,0.0,1.0,0.0,0.0,0.0,1.0
1481797686192707804,319,1481797686189823159,,3.09365391731,-7.33330917358,-140.084091187,0.00102800002787,1.0,0.0,0.0,0.0,1.0,0.0,0.0,0.0,1.0,-2.5,21.7073173523,1.40243899822,1.0,0.0,0.0,0.0,1.0,0.0,0.0,0.0,1.0,-1.70945998535,-0.397437475586,9.8784760498,1.0,0.0,0.0,0.0,1.0,0.0,0.0,0.0,1.0
1481797686234297869,320,1481797686232796589,,3.83372306824,-7.35345077515,-140.122207642,0.00134800001979,1.0,0.0,0.0,0.0,1.0,0.0,0.0,0.0,1.0,-1.34146344662,-22.1341457367,-4.39024400711,1.0,0.0,0.0,0.0,1.0,0.0,0.0,0.0,1.0,-5.21457121582,-0.881066210937,9.52413478862,1.0,0.0,0.0,0.0,1.0,0.0,0.0,0.0,1.0
1481797686276867920,321,1481797686274997427,,2.91456460953,-7.33584451675,-139.775436401,0.00128099997528,1.0,0.0,0.0,0.0,1.0,0.0,0.0,0.0,1.0,-1.46341466904,-24.0853652954,2.43902444839,1.0,0.0,0.0,0.0,1.0,0.0,0.0,0.0,1.0,3.28005627441,-0.828393774414,10.6111017578,1.0,0.0,0.0,0.0,1.0,0.0,0.0,0.0,1.0
1481797686319469117,322,1481797686317550707,,2.04062819481,-7.33373785019,-139.494491577,0.00113099999726,1.0,0.0,0.0,0.0,1.0,0.0,0.0,0.0,1.0,-1.8292683363,-1.15853655338,-0.792682945728,1.0,0.0,0.0,0.0,1.0,0.0,0.0,0.0,1.0,1.04866025408,-0.536301208408,10.2663367187,1.0,0.0,0.0,0.0,1.0,0.0,0.0,0.0,1.0
1481797686361897190,323,1481797686359873210,,2.07344913483,-7.35402441025,-139.397140503,0.00101999996696,1.0,0.0,0.0,0.0,1.0,0.0,0.0,0.0,1.0,-2.01219511032,0.609756112099,0.487804889679,1.0,0.0,0.0,0.0,1.0,0.0,0.0,0.0,1.0,-0.292092584273,-0.335188232422,10.1992990723,1.0,0.0,0.0,0.0,1.0,0.0,0.0,0.0,1.0
1481797686403914124,324,1481797686402044360,,2.20716094971,-7.35853242874,-139.160583496,0.00114800001029,1.0,0.0,0.0,0.0,1.0,0.0,0.0,0.0,1.0,-2.19512200356,17.7439022064,3.84146332741,1.0,0.0,0.0,0.0,1.0,0.0,0.0,0.0,1.0,2.01591779785,-0.330399829102,10.0412817627,1.0,0.0,0.0,0.0,1.0,0.0,0.0,0.0,1.0
1481797686458617799,325,1481797686445579241,,3.05112433434,-7.37899017334,-139.172714233,0.00150999997277,1.0,0.0,0.0,0.0,1.0,0.0,0.0,0.0,1.0,-1.95121955872,4.93902444839,0.18292683363,1.0,0.0,0.0,0.0,1.0,0.0,0.0,0.0,1.0,-3.79720383301,-0.349553442383,10.285490332,1.0,0.0,0.0,0.0,1.0,0.0,0.0,0.0,1.0
1481797686489616978,326,1481797686487859973,,3.16090893745,-7.36800384521,-139.027374268,0.00100100005511,1.0,0.0,0.0,0.0,1.0,0.0,0.0,0.0,1.0,-2.01219511032,-6.82926845551,2.07317066193,1.0,0.0,0.0,0.0,1.0,0.0,0.0,0.0,1.0,0.703895288086,-0.718260498047,10.1035310059,1.0,0.0,0.0,0.0,1.0,0.0,0.0,0.0,1.0
1481797686531669276,327,1481797686529982686,,2.78964304924,-7.37077760696,-138.807678223,0.00100499996915,1.0,0.0,0.0,0.0,1.0,0.0,0.0,0.0,1.0,-1.70731711388,-3.23170733452,1.15853655338,1.0,0.0,0.0,0.0,1.0,0.0,0.0,0.0,1.0,0.0909796630859,-0.77093293457,10.165780249,1.0,0.0,0.0,0.0,1.0,0.0,0.0,0.0,1.0
1481797686575175876,328,1481797686573117833,,2.63774251938,-7.36775159836,-138.708068848,0.00121400004718,1.0,0.0,0.0,0.0,1.0,0.0,0.0,0.0,1.0,-1.8902438879,-7.98780536652,-0.18292683363,1.0,0.0,0.0,0.0,1.0,0.0,0.0,0.0,1.0,-1.59932670898,-0.478840332031,10.299855542,1.0,0.0,0.0,0.0,1.0,0.0,0.0,0.0,1.0
1481797686618329303,329,1481797686615948401,,2.07456898689,-7.34763383865,-138.528152466,0.00141899997834,1.0,0.0,0.0,0.0,1.0,0.0,0.0,0.0,1.0,-1.76829278469,-19.4512195587,5.30487823486,1.0,0.0,0.0,0.0,1.0,0.0,0.0,0.0,1.0,1.43652099609,-0.430956298828,10.1322614258,1.0,0.0,0.0,0.0,1.0,0.0,0.0,0.0,1.0
1481797686659395731,330,1481797686657693203,,1.16960978508,-7.35110425949,-138.230407715,0.00101400003769,1.0,0.0,0.0,0.0,1.0,0.0,0.0,0.0,1.0,-1.70731711388,4.45121955872,4.2682929039,1.0,0.0,0.0,0.0,1.0,0.0,0.0,0.0,1.0,4.00310517578,-0.967257470703,11.0133276367,1.0,0.0,0.0,0.0,1.0,0.0,0.0,0.0,1.0
1481797686702297339,331,1481797686700218932,,1.54435992241,-7.38803911209,-138.109237671,0.00110800005496,1.0,0.0,0.0,0.0,1.0,0.0,0.0,0.0,1.0,-3.29268312454,26.4024391174,-3.90243911743,1.0,0.0,0.0,0.0,1.0,0.0,0.0,0.0,1.0,1.06302561017,-1.1875240965,10.8936175537,1.0,0.0,0.0,0.0,1.0,0.0,0.0,0.0,1.0
1481797686743759906,332,1481797686742273678,,2.89025855064,-7.44051837921,-138.212615967,0.00121699995361,1.0,0.0,0.0,0.0,1.0,0.0,0.0,0.0,1.0,-1.46341466904,-4.51219558716,-8.84146404266,1.0,0.0,0.0,0.0,1.0,0.0,0.0,0.0,1.0,-5.77960280762,-0.067037651051,9.77313117676,1.0,0.0,0.0,0.0,1.0,0.0,0.0,0.0,1.0
1481797686786501517,333,1481797686785065601,,2.67455601692,-7.41184902191,-138.000732422,0.0012529999949,1.0,0.0,0.0,0.0,1.0,0.0,0.0,0.0,1.0,-0.731707334518,-14.1463422775,8.59756088257,1.0,0.0,0.0,0.0,1.0,0.0,0.0,0.0,1.0,1.22583125,-1.07739082014,9.68215151367,1.0,0.0,0.0,0.0,1.0,0.0,0.0,0.0,1.0
1481797686829510624,334,1481797686827671693,,2.22202467918,-7.40290880203,-137.693145752,0.00137800001539,1.0,0.0,0.0,0.0,1.0,0.0,0.0,0.0,1.0,-1.58536589146,14.0853662491,4.45121955872,1.0,0.0,0.0,0.0,1.0,0.0,0.0,0.0,1.0,1.85311208496,-0.837970581055,9.88326445312,1.0,0.0,0.0,0.0,1.0,0.0,0.0,0.0,1.0
1481797686871927448,335,1481797686870190442,,2.87793111801,-7.39893388748,-137.674468994,0.00101400003769,1.0,0.0,0.0,0.0,1.0,0.0,0.0,0.0,1.0,-2.74390244484,29.4512195587,6.28048801422,1.0,0.0,0.0,0.0,1.0,0.0,0.0,0.0,1.0,-0.0383072265625,-0.550666381836,10.4913916748,1.0,0.0,0.0,0.0,1.0,0.0,0.0,0.0,1.0
1481797686913916309,336,1481797686912832263,,4.12000226974,-7.40600585938,-137.634613037,0.00122900004499,1.0,0.0,0.0,0.0,1.0,0.0,0.0,0.0,1.0,-2.68292689323,19.7560977936,-0.853658556938,1.0,0.0,0.0,0.0,1.0,0.0,0.0,0.0,1.0,-3.36624753418,-0.402225878906,9.50019277202,1.0,0.0,0.0,0.0,1.0,0.0,0.0,0.0,1.0
1481797686956271103,337,1481797686954648523,,4.82004880905,-7.44058561325,-137.583709717,0.00132899999153,1.0,0.0,0.0,0.0,1.0,0.0,0.0,0.0,1.0,-2.19512200356,-1.70731711388,1.64634156227,1.0,0.0,0.0,0.0,1.0,0.0,0.0,0.0,1.0,-1.93451494141,-0.751779321289,10.1178962158,1.0,0.0,0.0,0.0,1.0,0.0,0.0,0.0,1.0
1481797687002647973,338,1481797686997897834,,4.65608215332,-7.45435619354,-137.374450684,0.00188300001901,1.0,0.0,0.0,0.0,1.0,0.0,0.0,0.0,1.0,-1.58536589146,-8.47560977936,1.09756100178,1.0,0.0,0.0,0.0,1.0,0.0,0.0,0.0,1.0,-0.569819995117,-0.612915625,10.2136642822,1.0,0.0,0.0,0.0,1.0,0.0,0.0,0.0,1.0
1481797687042428065,339,1481797687039896018,,4.27116107941,-7.41555070877,-137.183517456,0.00100499996915,1.0,0.0,0.0,0.0,1.0,0.0,0.0,0.0,1.0,-1.34146344662,-13.9634151459,0.243902444839,1.0,0.0,0.0,0.0,1.0,0.0,0.0,0.0,1.0,-0.842758984375,-0.636857641602,9.98382092285,1.0,0.0,0.0,0.0,1.0,0.0,0.0,0.0,1.0
1481797687083626104,340,1481797687081991649,,3.63153409958,-7.3549747467,-136.925445557,0.00120900000911,1.0,0.0,0.0,0.0,1.0,0.0,0.0,0.0,1.0,-1.70731711388,-16.0975608826,1.46341466904,1.0,0.0,0.0,0.0,1.0,0.0,0.0,0.0,1.0,0.220266552734,-0.684741674805,9.94551369629,1.0,0.0,0.0,0.0,1.0,0.0,0.0,0.0,1.0
1481797687125959232,341,1481797687124571387,,2.69581913948,-7.31084156036,-136.8934021,0.00112899998203,1.0,0.0,0.0,0.0,1.0,0.0,0.0,0.0,1.0,-1.95121955872,-32.6219520569,-6.28048801422,1.0,0.0,0.0,0.0,1.0,0.0,0.0,0.0,1.0,-1.09175595703,-1.01992990723,9.47146118306,1.0,0.0,0.0,0.0,1.0,0.0,0.0,0.0,1.0
1481797687167906948,342,1481797687166513687,,1.72596013546,-7.35274076462,-136.460479736,0.00125400000252,1.0,0.0,0.0,0.0,1.0,0.0,0.0,0.0,1.0,-2.07317066193,11.1585359573,11.1585359573,1.0,0.0,0.0,0.0,1.0,0.0,0.0,0.0,1.0,1.36469494629,-1.56580788574,10.3764699951,1.0,0.0,0.0,0.0,1.0,0.0,0.0,0.0,1.0
1481797687209716697,343,1481797687208216407,,1.77342545986,-7.3035235405,-136.398590088,0.00113099999726,1.0,0.0,0.0,0.0,1.0,0.0,0.0,0.0,1.0,-2.43902444839,4.87804889679,-5.36585378647,1.0,0.0,0.0,0.0,1.0,0.0,0.0,0.0,1.0,-0.378283862305,-0.837970581055,10.3237975586,1.0,0.0,0.0,0.0,1.0,0.0,0.0,0.0,1.0
1481797687252097636,344,1481797687250230060,,1.70936203003,-7.28706550598,-136.516098022,0.00114700000267,1.0,0.0,0.0,0.0,1.0,0.0,0.0,0.0,1.0,-2.62195134163,-7.19512224197,3.65853667259,1.0,0.0,0.0,0.0,1.0,0.0,0.0,0.0,1.0,0.603338854892,-0.478840332031,10.4291424316,1.0,0.0,0.0,0.0,1.0,0.0,0.0,0.0,1.0
1481797687294202694,345,1481797687292554072,,1.24716365337,-7.34636545181,-136.097244263,0.00109799997881,1.0,0.0,0.0,0.0,1.0,0.0,0.0,0.0,1.0,-3.59756112099,-1.46341466904,3.10975623131,1.0,0.0,0.0,0.0,1.0,0.0,0.0,0.0,1.0,2.37025978969,-1.26892687988,10.3333743652,1.0,0.0,0.0,0.0,1.0,0.0,0.0,0.0,1.0
1481797687336909253,346,1481797687335290110,,1.3244638443,-7.36567640305,-135.910949707,0.00132599996869,1.0,0.0,0.0,0.0,1.0,0.0,0.0,0.0,1.0,-2.86585378647,18.5365848541,0.426829278469,1.0,0.0,0.0,0.0,1.0,0.0,0.0,0.0,1.0,0.627280834961,-0.445321508789,10.6398321777,1.0,0.0,0.0,0.0,1.0,0.0,0.0,0.0,1.0
1481797687378777075,347,1481797687377567093,,2.12187218666,-7.37191486359,-135.876113892,0.001007999992,1.0,0.0,0.0,0.0,1.0,0.0,0.0,0.0,1.0,-0.731707334518,24.6951236725,5.30487823486,1.0,0.0,0.0,0.0,1.0,0.0,0.0,0.0,1.0,1.87705410156,0.555454785156,10.4387192383,1.0,0.0,0.0,0.0,1.0,0.0,0.0,0.0,1.0
1481797687421427489,348,1481797687419787357,,3.23320436478,-7.33692312241,-135.703048706,0.00118100002874,1.0,0.0,0.0,0.0,1.0,0.0,0.0,0.0,1.0,-2.25609779358,25.2439041138,-1.64634156227,1.0,0.0,0.0,0.0,1.0,0.0,0.0,0.0,1.0,-2.06859023437,1.04866025408,10.3860468018,1.0,0.0,0.0,0.0,1.0,0.0,0.0,0.0,1.0
1481797687467906545,349,1481797687461595232,,4.04522275925,-7.37394666672,-135.874755859,0.00120699999388,1.0,0.0,0.0,0.0,1.0,0.0,0.0,0.0,1.0,-3.23170733452,12.8048782349,9.39024448395,1.0,0.0,0.0,0.0,1.0,0.0,0.0,0.0,1.0,-0.483628735352,-1.31681091309,10.1562034424,1.0,0.0,0.0,0.0,1.0,0.0,0.0,0.0,1.0
1481797687505373546,350,1481797687503601437,,4.50637292862,-7.36991453171,-135.499069214,0.00104400003329,1.0,0.0,0.0,0.0,1.0,0.0,0.0,0.0,1.0,-2.25609779358,16.4634151459,-2.25609779358,1.0,0.0,0.0,0.0,1.0,0.0,0.0,0.0,1.0,-0.148440512063,-0.526724328702,9.50019277202,1.0,0.0,0.0,0.0,1.0,0.0,0.0,0.0,1.0
1481797687548050262,351,1481797687545903991,,5.15881872177,-7.43246793747,-135.732879639,0.00104799994733,1.0,0.0,0.0,0.0,1.0,0.0,0.0,0.0,1.0,-2.80487799644,3.7804877758,-3.41463422775,1.0,0.0,0.0,0.0,1.0,0.0,0.0,0.0,1.0,-3.16513459473,-0.76614453125,9.79228479004,1.0,0.0,0.0,0.0,1.0,0.0,0.0,0.0,1.0
1481797687594529891,352,1481797687588108318,,5.34682655334,-7.4806895256,-135.646743774,0.00106200005393,1.0,0.0,0.0,0.0,1.0,0.0,0.0,0.0,1.0,-1.95121955872,-22.3170719147,-2.37804889679,1.0,0.0,0.0,0.0,1.0,0.0,0.0,0.0,1.0,-2.58573779297,-1.31202250977,9.81143840332,1.0,0.0,0.0,0.0,1.0,0.0,0.0,0.0,1.0
1481797687634811173,353,1481797687630577954,,4.45601844788,-7.43904066086,-135.267944336,0.00106799998321,1.0,0.0,0.0,0.0,1.0,0.0,0.0,0.0,1.0,-1.8292683363,-21.8902435303,5.30487823486,1.0,0.0,0.0,0.0,1.0,0.0,0.0,0.0,1.0,1.47961662598,-0.383072265625,10.2711251221,1.0,0.0,0.0,0.0,1.0,0.0,0.0,0.0,1.0
1481797687675157819,354,1481797687673205817,,3.6201736927,-7.35086631775,-134.869995117,0.00152599997818,1.0,0.0,0.0,0.0,1.0,0.0,0.0,0.0,1.0,-2.56097555161,15.0000009537,9.5731716156,1.0,0.0,0.0,0.0,1.0,0.0,0.0,0.0,1.0,2.10689731481,0.349553442383,10.0508585693,1.0,0.0,0.0,0.0,1.0,0.0,0.0,0.0,1.0
1481797687718162082,355,1481797687715360769,,4.0181927681,-7.37309980392,-134.948638916,0.00120199995581,1.0,0.0,0.0,0.0,1.0,0.0,0.0,0.0,1.0,-0.609756112099,-13.2926826477,-9.26829242706,1.0,0.0,0.0,0.0,1.0,0.0,0.0,0.0,1.0,-4.83628735352,-0.814028564453,10.0269165527,1.0,0.0,0.0,0.0,1.0,0.0,0.0,0.0,1.0
1481797687758962524,356,1481797687757391870,,3.49214482307,-7.33878755569,-134.70904541,0.001215999946,1.0,0.0,0.0,0.0,1.0,0.0,0.0,0.0,1.0,-0.487804889679,-17.9268302917,8.59756088257,1.0,0.0,0.0,0.0,1.0,0.0,0.0,0.0,1.0,0.0622492431641,-0.225054956055,9.99818613281,1.0,0.0,0.0,0.0,1.0,0.0,0.0,0.0,1.0
1481797687801452576,357,1481797687799716143,,2.92302298546,-7.34863042831,-134.253372192,0.00103899999522,1.0,0.0,0.0,0.0,1.0,0.0,0.0,0.0,1.0,-2.13414645195,20.4268302917,10.7317075729,1.0,0.0,0.0,0.0,1.0,0.0,0.0,0.0,1.0,0.943315454102,-1.11569797363,10.433930835,1.0,0.0,0.0,0.0,1.0,0.0,0.0,0.0,1.0
1481797687843690756,358,1481797687842157967,,3.46174430847,-7.36657476425,-134.421356201,0.00103899999522,1.0,0.0,0.0,0.0,1.0,0.0,0.0,0.0,1.0,-2.19512200356,-20.0,-4.02439022064,1.0,0.0,0.0,0.0,1.0,0.0,0.0,0.0,1.0,-3.33751711426,-0.205901342773,10.2471831055,1.0,0.0,0.0,0.0,1.0,0.0,0.0,0.0,1.0
1481797687896749716,359,1481797687884594373,,3.11541199684,-7.35220003128,-134.092193604,0.00103699997999,1.0,0.0,0.0,0.0,1.0,0.0,0.0,0.0,1.0,-1.70731711388,2.86585378647,6.40243911743,1.0,0.0,0.0,0.0,1.0,0.0,0.0,0.0,1.0,3.42370837402,-0.138863696289,10.5919481445,1.0,0.0,0.0,0.0,1.0,0.0,0.0,0.0,1.0
1481797687928720756,360,1481797687927145154,,3.45510959625,-7.3557267189,-134.000732422,0.000996000017039,1.0,0.0,0.0,0.0,1.0,0.0,0.0,0.0,1.0,-2.13414645195,11.8902444839,-5.12195110321,1.0,0.0,0.0,0.0,1.0,0.0,0.0,0.0,1.0,-1.35990654297,-0.526724328702,10.3477395752,1.0,0.0,0.0,0.0,1.0,0.0,0.0,0.0,1.0
1481797687971166850,361,1481797687969277971,,3.96280384064,-7.37258720398,-133.999359131,0.00129599997308,1.0,0.0,0.0,0.0,1.0,0.0,0.0,0.0,1.0,-2.13414645195,-4.63414621353,0.487804889679,1.0,0.0,0.0,0.0,1.0,0.0,0.0,0.0,1.0,-1.82438166504,-0.742202514648,10.1035310059,1.0,0.0,0.0,0.0,1.0,0.0,0.0,0.0,1.0
1481797688015922129,362,1481797688012996339,,3.36728143692,-7.29671669006,-133.790847778,0.00138899998274,1.0,0.0,0.0,0.0,1.0,0.0,0.0,0.0,1.0,-2.74390244484,-15.3048791885,2.25609779358,1.0,0.0,0.0,0.0,1.0,0.0,0.0,0.0,1.0,1.36469494629,-0.675164868164,10.4147772217,1.0,0.0,0.0,0.0,1.0,0.0,0.0,0.0,1.0
1481797688057019441,363,1481797688055306706,,3.06684780121,-7.28751420975,-133.229614258,0.00173999997787,1.0,0.0,0.0,0.0,1.0,0.0,0.0,0.0,1.0,-3.35365867615,9.87804889679,4.45121955872,1.0,0.0,0.0,0.0,1.0,0.0,0.0,0.0,1.0,1.54186586914,0.0,10.3956236084,1.0,0.0,0.0,0.0,1.0,0.0,0.0,0.0,1.0
1481797688098697213,364,1481797688097077341,,3.41503667831,-7.24781370163,-133.413696289,0.00129299995024,1.0,0.0,0.0,0.0,1.0,0.0,0.0,0.0,1.0,-0.0609756112099,0.548780500889,-7.13414621353,1.0,0.0,0.0,0.0,1.0,0.0,0.0,0.0,1.0,-2.17393510742,0.426167895508,9.34696269673,1.0,0.0,0.0,0.0,1.0,0.0,0.0,0.0,1.0
1481797688141008674,365,1481797688139297450,,3.15540122986,-7.26856374741,-133.622650146,0.00102199998219,1.0,0.0,0.0,0.0,1.0,0.0,0.0,0.0,1.0,-1.8292683363,-10.548781395,7.62195110321,1.0,0.0,0.0,0.0,1.0,0.0,0.0,0.0,1.0,-0.0143652099609,-0.363918652344,10.2184526855,1.0,0.0,0.0,0.0,1.0,0.0,0.0,0.0,1.0
1481797688183404301,366,1481797688181573651,,2.60486960411,-7.32922887802,-133.258331299,0.00125500001013,1.0,0.0,0.0,0.0,1.0,0.0,0.0,0.0,1.0,-3.17073178291,13.048781395,8.78048801422,1.0,0.0,0.0,0.0,1.0,0.0,0.0,0.0,1.0,6.22492431641,-1.32638771973,10.9558667969,1.0,0.0,0.0,0.0,1.0,0.0,0.0,0.0,1.0
1481797688225068948,367,1481797688223521315,,3.55934524536,-7.28614854813,-132.987365723,0.00103100005072,1.0,0.0,0.0,0.0,1.0,0.0,0.0,0.0,1.0,-4.39024400711,10.4878053665,-14.5731706619,1.0,0.0,0.0,0.0,1.0,0.0,0.0,0.0,1.0,-2.03507141113,0.536301208408,10.553640918,1.0,0.0,0.0,0.0,1.0,0.0,0.0,0.0,1.0
1481797688267290462,368,1481797688265144713,,3.84539055824,-7.24229574203,-133.295715332,0.00111399998423,1.0,0.0,0.0,0.0,1.0,0.0,0.0,0.0,1.0,-4.39024400711,15.0609760284,6.15853643417,1.0,0.0,0.0,0.0,1.0,0.0,0.0,0.0,1.0,-1.23540805664,-0.660799658203,10.8553103271,1.0,0.0,0.0,0.0,1.0,0.0,0.0,0.0,1.0
1481797688309880253,369,1481797688307247895,,4.3373966217,-7.32205533981,-133.026260376,0.00097499997355,1.0,0.0,0.0,0.0,1.0,0.0,0.0,0.0,1.0,-2.25609779358,6.09756088257,-8.71951198578,1.0,0.0,0.0,0.0,1.0,0.0,0.0,0.0,1.0,-0.847547387695,-1.01035310059,9.5432884019,1.0,0.0,0.0,0.0,1.0,0.0,0.0,0.0,1.0
1481797688351769480,370,1481797688350066172,,4.57133245468,-7.34062671661,-133.033004761,0.00107700005174,1.0,0.0,0.0,0.0,1.0,0.0,0.0,0.0,1.0,-4.51219558716,15.1829271317,15.0000009537,1.0,0.0,0.0,0.0,1.0,0.0,0.0,0.0,1.0,1.1540052002,-0.818816967773,10.0317049561,1.0,0.0,0.0,0.0,1.0,0.0,0.0,0.0,1.0
1481797688393916673,371,1481797688392501641,,5.09480857849,-7.31837749481,-132.819473267,0.00108099996578,1.0,0.0,0.0,0.0,1.0,0.0,0.0,0.0,1.0,-2.43902444839,8.84146404266,-6.70731735229,1.0,0.0,0.0,0.0,1.0,0.0,0.0,0.0,1.0,-0.972045874023,-0.809240161133,10.0269165527,1.0,0.0,0.0,0.0,1.0,0.0,0.0,0.0,1.0
1481797688436778334,372,1481797688435203461,,5.57041168213,-7.37524032593,-132.954742432,0.00131299998611,1.0,0.0,0.0,0.0,1.0,0.0,0.0,0.0,1.0,-2.56097555161,1.03658533096,-0.792682945728,1.0,0.0,0.0,0.0,1.0,0.0,0.0,0.0,1.0,-1.96803376465,-0.416591088867,10.2519715088,1.0,0.0,0.0,0.0,1.0,0.0,0.0,0.0,1.0
1481797688478693446,373,1481797688477058627,,5.51135587692,-7.37704610825,-132.736923218,0.000984000042081,1.0,0.0,0.0,0.0,1.0,0.0,0.0,0.0,1.0,-1.64634156227,-3.53658556938,4.08536577225,1.0,0.0,0.0,0.0,1.0,0.0,0.0,0.0,1.0,0.0718260498047,-0.742202514648,10.2280294922,1.0,0.0,0.0,0.0,1.0,0.0,0.0,0.0,1.0
1481797688520904388,374,1481797688519464409,,5.17906427383,-7.40379810333,-132.658157349,0.00118000002112,1.0,0.0,0.0,0.0,1.0,0.0,0.0,0.0,1.0,-1.03658533096,-21.0365848541,-3.96341490746,1.0,0.0,0.0,0.0,1.0,0.0,0.0,0.0,1.0,-2.11168571813,-1.02471831055,9.94072529297,1.0,0.0,0.0,0.0,1.0,0.0,0.0,0.0,1.0
1481797688563233088,375,1481797688561492749,,4.35798168182,-7.39018630981,-132.317901611,0.00100599997677,1.0,0.0,0.0,0.0,1.0,0.0,0.0,0.0,1.0,-1.09756100178,-12.8048782349,7.25609779358,1.0,0.0,0.0,0.0,1.0,0.0,0.0,0.0,1.0,1.68072956543,-0.842758984375,10.0125513428,1.0,0.0,0.0,0.0,1.0,0.0,0.0,0.0,1.0
1481797688605744181,376,1481797688603979937,,3.87529826164,-7.29372644424,-131.976364136,0.000997000024654,1.0,0.0,0.0,0.0,1.0,0.0,0.0,0.0,1.0,-3.17073178291,3.29268312454,1.15853655338,1.0,0.0,0.0,0.0,1.0,0.0,0.0,0.0,1.0,0.0526724365234,-0.0143652099609,9.57680722515,1.0,0.0,0.0,0.0,1.0,0.0,0.0,0.0,1.0
1481797688647306018,377,1481797688645615418,,3.92520856857,-7.25115442276,-132.008483887,0.000995000009425,1.0,0.0,0.0,0.0,1.0,0.0,0.0,0.0,1.0,-3.04878044128,8.17073154449,-2.07317066193,1.0,0.0,0.0,0.0,1.0,0.0,0.0,0.0,1.0,-0.833182177734,-0.814028564453,10.3621047852,1.0,0.0,0.0,0.0,1.0,0.0,0.0,0.0,1.0
1481797688690150752,378,1481797688688377080,,4.54564428329,-7.29175186157,-131.886993408,0.00101600005291,1.0,0.0,0.0,0.0,1.0,0.0,0.0,0.0,1.0,-4.32926845551,24.7560977936,0.609756112099,1.0,0.0,0.0,0.0,1.0,0.0,0.0,0.0,1.0,-1.32159931641,0.0287304199219,9.37090471333,1.0,0.0,0.0,0.0,1.0,0.0,0.0,0.0,1.0
1481797688733167255,379,1481797688729870324,,5.16246128082,-7.34031820297,-132.171051025,0.000979000004008,1.0,0.0,0.0,0.0,1.0,0.0,0.0,0.0,1.0,-2.25609779358,-10.0,-4.51219558716,1.0,0.0,0.0,0.0,1.0,0.0,0.0,0.0,1.0,-2.30801040039,-0.641646044922,10.433930835,1.0,0.0,0.0,0.0,1.0,0.0,0.0,0.0,1.0
1481797688774782736,380,1481797688773195156,,4.9853477478,-7.3746304512,-131.867828369,0.0014969999902,1.0,0.0,0.0,0.0,1.0,0.0,0.0,0.0,1.0,-0.487804889679,-4.51219558716,0.853658556938,1.0,0.0,0.0,0.0,1.0,0.0,0.0,0.0,1.0,-0.248996972656,-0.282515795898,9.75397756348,1.0,0.0,0.0,0.0,1.0,0.0,0.0,0.0,1.0
1481797688816818733,381,1481797688814952718,,5.45571565628,-7.41489839554,-131.494903564,0.0013190000318,1.0,0.0,0.0,0.0,1.0,0.0,0.0,0.0,1.0,-5.85365867615,20.0,-4.39024400711,1.0,0.0,0.0,0.0,1.0,0.0,0.0,0.0,1.0,-0.0909796630859,-0.110133276367,9.12669672852,1.0,0.0,0.0,0.0,1.0,0.0,0.0,0.0,1.0
1481797688858461558,382,1481797688856762780,,6.19849252701,-7.35648298264,-131.768692017,0.00106499996036,1.0,0.0,0.0,0.0,1.0,0.0,0.0,0.0,1.0,-2.80487799644,8.10975551605,-4.57317066193,1.0,0.0,0.0,0.0,1.0,0.0,0.0,0.0,1.0,-3.89297189941,-0.287304199219,10.7739074707,1.0,0.0,0.0,0.0,1.0,0.0,0.0,0.0,1.0
1481797688901196710,383,1481797688899289915,,6.21229743958,-7.4339761734,-131.827102661,0.000967999978457,1.0,0.0,0.0,0.0,1.0,0.0,0.0,0.0,1.0,-2.07317066193,-13.658536911,5.0,1.0,0.0,0.0,0.0,1.0,0.0,0.0,0.0,1.0,-1.56101948242,-0.928950244141,11.2096521729,1.0,0.0,0.0,0.0,1.0,0.0,0.0,0.0,1.0
1481797688943422912,384,1481797688941718926,,5.4855632782,-7.45566749573,-131.393890381,0.0010529999854,1.0,0.0,0.0,0.0,1.0,0.0,0.0,0.0,1.0,-2.37804889679,12.9878053665,13.7195129395,1.0,0.0,0.0,0.0,1.0,0.0,0.0,0.0,1.0,6.41646044922,-1.62805712891,11.0707884766,1.0,0.0,0.0,0.0,1.0,0.0,0.0,0.0,1.0
1481797688985283650,385,1481797688983522009,,6.22217273712,-7.44750499725,-131.13394165,0.00115899997763,1.0,0.0,0.0,0.0,1.0,0.0,0.0,0.0,1.0,-0.670731723309,-2.07317066193,-13.9024391174,1.0,0.0,0.0,0.0,1.0,0.0,0.0,0.0,1.0,-4.03662399902,0.105344873047,8.74362446289,1.0,0.0,0.0,0.0,1.0,0.0,0.0,0.0,1.0
1481797689027346261,386,1481797689025673004,,6.04874181747,-7.39969968796,-131.263504028,0.000962999998592,1.0,0.0,0.0,0.0,1.0,0.0,0.0,0.0,1.0,-4.39024400711,8.96341514587,13.9024391174,1.0,0.0,0.0,0.0,1.0,0.0,0.0,0.0,1.0,1.71424838867,-1.07260241682,10.673351001,1.0,0.0,0.0,0.0,1.0,0.0,0.0,0.0,1.0
1481797689069682409,387,1481797689068143733,,6.35250759125,-7.42452430725,-130.921066284,0.00106000003871,1.0,0.0,0.0,0.0,1.0,0.0,0.0,0.0,1.0,-2.07317066193,4.93902444839,-3.35365867615,1.0,0.0,0.0,0.0,1.0,0.0,0.0,0.0,1.0,-1.4844050293,-0.383072265625,9.48103915874,1.0,0.0,0.0,0.0,1.0,0.0,0.0,0.0,1.0
1481797689112795993,388,1481797689110679514,,6.57745552063,-7.44479227066,-130.986968994,0.00102800002787,1.0,0.0,0.0,0.0,1.0,0.0,0.0,0.0,1.0,-2.31707310677,0.914634168148,0.914634168148,1.0,0.0,0.0,0.0,1.0,0.0,0.0,0.0,1.0,-1.47482822266,-0.565031591797,10.5919481445,1.0,0.0,0.0,0.0,1.0,0.0,0.0,0.0,1.0
1481797689156898678,389,1481797689153733151,,6.54691982269,-7.43958520889,-130.78692627,0.00133700005244,1.0,0.0,0.0,0.0,1.0,0.0,0.0,0.0,1.0,-1.64634156227,-6.82926845551,3.7804877758,1.0,0.0,0.0,0.0,1.0,0.0,0.0,0.0,1.0,-1.02471831055,-0.660799658203,10.3429511719,1.0,0.0,0.0,0.0,1.0,0.0,0.0,0.0,1.0
1481797689197076264,390,1481797689195428996,,6.14989757538,-7.45579433441,-130.559387207,0.00103699997999,1.0,0.0,0.0,0.0,1.0,0.0,0.0,0.0,1.0,-2.31707310677,-5.73170757294,1.2195122242,1.0,0.0,0.0,0.0,1.0,0.0,0.0,0.0,1.0,-0.632069238281,-0.555454785156,10.3094323486,1.0,0.0,0.0,0.0,1.0,0.0,0.0,0.0,1.0
1481797689238310865,391,1481797689236967656,,5.88850069046,-7.37763023376,-130.370147705,0.00102500000503,1.0,0.0,0.0,0.0,1.0,0.0,0.0,0.0,1.0,-1.46341466904,-6.09756088257,1.76829278469,1.0,0.0,0.0,0.0,1.0,0.0,0.0,0.0,1.0,-0.675164868164,-0.339976635742,10.1514150391,1.0,0.0,0.0,0.0,1.0,0.0,0.0,0.0,1.0
1481797689281173777,392,1481797689279428333,,5.52813005447,-7.35770177841,-130.258956909,0.000967999978457,1.0,0.0,0.0,0.0,1.0,0.0,0.0,0.0,1.0,-1.64634156227,-20.975610733,-3.90243911743,1.0,0.0,0.0,0.0,1.0,0.0,0.0,0.0,1.0,-1.4844050293,-0.521935925381,10.1609918457,1.0,0.0,0.0,0.0,1.0,0.0,0.0,0.0,1.0
1481797689323119357,393,1481797689321441205,,4.6885061264,-7.3268995285,-129.951782227,0.00100899999961,1.0,0.0,0.0,0.0,1.0,0.0,0.0,0.0,1.0,-1.34146344662,-10.3658542633,4.02439022064,1.0,0.0,0.0,0.0,1.0,0.0,0.0,0.0,1.0,1.8148048584,-0.474051928711,10.3764699951,1.0,0.0,0.0,0.0,1.0,0.0,0.0,0.0,1.0
1481797689365571181,394,1481797689363832873,,4.61819648743,-7.33486127853,-129.579986572,0.00116900005378,1.0,0.0,0.0,0.0,1.0,0.0,0.0,0.0,1.0,-3.90243911743,27.5,6.58536624908,1.0,0.0,0.0,0.0,1.0,0.0,0.0,0.0,1.0,0.0239420166016,1.14921679688,10.1035310059,1.0,0.0,0.0,0.0,1.0,0.0,0.0,0.0,1.0
1481797689407731394,395,1481797689406450579,,5.10863780975,-7.29089927673,-130.11378479,0.00107500003651,1.0,0.0,0.0,0.0,1.0,0.0,0.0,0.0,1.0,-0.0609756112099,-4.39024400711,-15.4268302917,1.0,0.0,0.0,0.0,1.0,0.0,0.0,0.0,1.0,-1.57538469238,-0.952892260742,11.0803652832,1.0,0.0,0.0,0.0,1.0,0.0,0.0,0.0,1.0
1481797689452031159,396,1481797689449116046,,5.39826059341,-7.3467168808,-129.964370728,0.00114700000267,1.0,0.0,0.0,0.0,1.0,0.0,0.0,0.0,1.0,-2.07317066193,10.7926826477,8.17073154449,1.0,0.0,0.0,0.0,1.0,0.0,0.0,0.0,1.0,-0.148440512063,-0.790086547852,10.4435076416,1.0,0.0,0.0,0.0,1.0,0.0,0.0,0.0,1.0
1481797689493413259,397,1481797689491788074,,5.65655183792,-7.43604183197,-129.782211304,0.00102900003549,1.0,0.0,0.0,0.0,1.0,0.0,0.0,0.0,1.0,-3.41463422775,24.2682933807,2.62195134163,1.0,0.0,0.0,0.0,1.0,0.0,0.0,0.0,1.0,0.110133276367,-0.497993945312,10.1562034424,1.0,0.0,0.0,0.0,1.0,0.0,0.0,0.0,1.0
1481797689535960601,398,1481797689534702912,,6.43706941605,-7.42375850677,-129.938079834,0.00164100003894,1.0,0.0,0.0,0.0,1.0,0.0,0.0,0.0,1.0,-3.04878044128,27.8048782349,-0.426829278469,1.0,0.0,0.0,0.0,1.0,0.0,0.0,0.0,1.0,0.450109912109,-0.210689746094,10.6398321777,1.0,0.0,0.0,0.0,1.0,0.0,0.0,0.0,1.0
1481797689578492424,399,1481797689576543702,,7.70226955414,-7.48809671402,-129.990371704,0.000968999986071,1.0,0.0,0.0,0.0,1.0,0.0,0.0,0.0,1.0,-3.35365867615,29.5731697083,-7.13414621353,1.0,0.0,0.0,0.0,1.0,0.0,0.0,0.0,1.0,-2.00634099121,-0.593762048251,9.48582756206,1.0,0.0,0.0,0.0,1.0,0.0,0.0,0.0,1.0
1481797689620188633,400,1481797689618857976,,8.73888683319,-7.61617946625,-130.336624146,0.00114499998745,1.0,0.0,0.0,0.0,1.0,0.0,0.0,0.0,1.0,-2.25609779358,6.95121955872,-6.7682929039,1.0,0.0,0.0,0.0,1.0,0.0,0.0,0.0,1.0,-3.28005627441,-1.23540805664,9.84495722656,1.0,0.0,0.0,0.0,1.0,0.0,0.0,0.0,1.0
1481797689662330409,401,1481797689660978710,,9.10705566406,-7.75304460526,-130.341049194,0.00101300003007,1.0,0.0,0.0,0.0,1.0,0.0,0.0,0.0,1.0,-1.2804877758,-11.1585359573,-0.426829278469,1.0,0.0,0.0,0.0,1.0,0.0,0.0,0.0,1.0,-3.99831677246,-0.565031591797,9.99818613281,1.0,0.0,0.0,0.0,1.0,0.0,0.0,0.0,1.0
1481797689704559059,402,1481797689703219443,,8.42259025574,-7.72879743576,-130.020889282,0.000976999988779,1.0,0.0,0.0,0.0,1.0,0.0,0.0,0.0,1.0,-3.71951246262,-1.2804877758,18.475610733,1.0,0.0,0.0,0.0,1.0,0.0,0.0,0.0,1.0,5.44920297852,-1.40300217285,12.4881558594,1.0,0.0,0.0,0.0,1.0,0.0,0.0,0.0,1.0
1481797689746924842,403,1481797689745595851,,8.29129695892,-7.68189334869,-129.741729736,0.000959000026342,1.0,0.0,0.0,0.0,1.0,0.0,0.0,0.0,1.0,-0.609756112099,-27.8658542633,-23.5365848541,1.0,0.0,0.0,0.0,1.0,0.0,0.0,0.0,1.0,-3.77326181641,-0.732625708008,8.85375773926,1.0,0.0,0.0,0.0,1.0,0.0,0.0,0.0,1.0
1481797689788588916,404,1481797689787309456,,7.66470861435,-7.57016086578,-129.701263428,0.000958000018727,1.0,0.0,0.0,0.0,1.0,0.0,0.0,0.0,1.0,-2.19512200356,-17.0121955872,5.54878091812,1.0,0.0,0.0,0.0,1.0,0.0,0.0,0.0,1.0,-2.1691467041,-1.03429511719,9.06923588867,1.0,0.0,0.0,0.0,1.0,0.0,0.0,0.0,1.0
1481797689830624235,405,1481797689829115820,,6.84802150726,-7.47963142395,-129.21206665,0.000966000021435,1.0,0.0,0.0,0.0,1.0,0.0,0.0,0.0,1.0,-2.98780488968,23.4146347046,17.317073822,1.0,0.0,0.0,0.0,1.0,0.0,0.0,0.0,1.0,4.09408483887,-0.445321508789,10.0939541992,1.0,0.0,0.0,0.0,1.0,0.0,0.0,0.0,1.0
1481797689873035955,406,1481797689872004981,,7.17061424255,-7.49532985687,-129.208999634,0.00101999996696,1.0,0.0,0.0,0.0,1.0,0.0,0.0,0.0,1.0,0.426829278469,5.12195110321,-13.841463089,1.0,0.0,0.0,0.0,1.0,0.0,0.0,0.0,1.0,-1.0534486574,-0.60812722168,9.90241806641,1.0,0.0,0.0,0.0,1.0,0.0,0.0,0.0,1.0
1481797689915387363,407,1481797689914132121,,7.73374843597,-7.54582738876,-129.372161865,0.00115000002552,1.0,0.0,0.0,0.0,1.0,0.0,0.0,0.0,1.0,-0.853658556938,-24.0853652954,-10.1829271317,1.0,0.0,0.0,0.0,1.0,0.0,0.0,0.0,1.0,-5.40610734863,-1.05823706072,9.10275471191,1.0,0.0,0.0,0.0,1.0,0.0,0.0,0.0,1.0
1481797689957173832,408,1481797689955808748,,7.11416864395,-7.49283361435,-128.811477661,0.000984000042081,1.0,0.0,0.0,0.0,1.0,0.0,0.0,0.0,1.0,-4.75609779358,16.341463089,22.4390239716,1.0,0.0,0.0,0.0,1.0,0.0,0.0,0.0,1.0,3.4428619873,-0.421379492187,10.3764699951,1.0,0.0,0.0,0.0,1.0,0.0,0.0,0.0,1.0
1481797690002733422,409,1481797690000703556,,7.01540184021,-7.53070497513,-128.83493042,0.0010150000453,1.0,0.0,0.0,0.0,1.0,0.0,0.0,0.0,1.0,0.0609756112099,-10.548781395,-15.3658533096,1.0,0.0,0.0,0.0,1.0,0.0,0.0,0.0,1.0,-0.708683691406,-0.0957680664062,10.8600987305,1.0,0.0,0.0,0.0,1.0,0.0,0.0,0.0,1.0
1481797690042596534,410,1481797690041138482,,7.07461071014,-7.50620317459,-128.69229126,0.000982000026852,1.0,0.0,0.0,0.0,1.0,0.0,0.0,0.0,1.0,-0.792682945728,-2.37804889679,4.20731735229,1.0,0.0,0.0,0.0,1.0,0.0,0.0,0.0,1.0,0.0,-0.900219824219,9.70609353027,1.0,0.0,0.0,0.0,1.0,0.0,0.0,0.0,1.0
1481797690084246390,411,1481797690083231092,,7.28224515915,-7.45063877106,-128.222991943,0.000995000009425,1.0,0.0,0.0,0.0,1.0,0.0,0.0,0.0,1.0,-4.45121955872,30.6707305908,10.1219511032,1.0,0.0,0.0,0.0,1.0,0.0,0.0,0.0,1.0,-0.991199487305,0.0383072265625,9.50498117534,1.0,0.0,0.0,0.0,1.0,0.0,0.0,0.0,1.0
1481797690126283271,412,1481797690125233912,,7.96459341049,-7.49414587021,-128.609619141,0.00101799995173,1.0,0.0,0.0,0.0,1.0,0.0,0.0,0.0,1.0,-2.37804889679,17.317073822,-8.5365858078,1.0,0.0,0.0,0.0,1.0,0.0,0.0,0.0,1.0,-3.00232888184,-0.876277807617,11.3820346924,1.0,0.0,0.0,0.0,1.0,0.0,0.0,0.0,1.0
1481797690168895197,413,1481797690167381000,,8.76008796692,-7.62048816681,-128.616882324,0.00100899999961,1.0,0.0,0.0,0.0,1.0,0.0,0.0,0.0,1.0,-1.2195122242,-2.98780488968,3.23170733452,1.0,0.0,0.0,0.0,1.0,0.0,0.0,0.0,1.0,-2.49475812988,-0.995987890625,10.2711251221,1.0,0.0,0.0,0.0,1.0,0.0,0.0,0.0,1.0
1481797690210450054,414,1481797690209292050,,8.58194541931,-7.64206647873,-128.270233154,0.00100899999961,1.0,0.0,0.0,0.0,1.0,0.0,0.0,0.0,1.0,-1.95121955872,-4.02439022064,0.18292683363,1.0,0.0,0.0,0.0,1.0,0.0,0.0,0.0,1.0,-1.93930334473,-0.665588061523,9.74440075684,1.0,0.0,0.0,0.0,1.0,0.0,0.0,0.0,1.0
1481797690252771306,415,1481797690251576584,,8.11358737946,-7.57404661179,-128.196960449,0.00106799998321,1.0,0.0,0.0,0.0,1.0,0.0,0.0,0.0,1.0,-0.487804889679,-22.682926178,4.69512224197,1.0,0.0,0.0,0.0,1.0,0.0,0.0,0.0,1.0,-2.64319863281,-0.359130249023,10.1178962158,1.0,0.0,0.0,0.0,1.0,0.0,0.0,0.0,1.0
1481797690294956207,416,1481797690293932836,,7.10091495514,-7.48054981232,-127.664794922,0.0012379999971,1.0,0.0,0.0,0.0,1.0,0.0,0.0,0.0,1.0,-1.15853655338,0.914634168148,13.841463089,1.0,0.0,0.0,0.0,1.0,0.0,0.0,0.0,1.0,5.2337248291,-0.938527050781,10.5871597412,1.0,0.0,0.0,0.0,1.0,0.0,0.0,0.0,1.0
1481797690336560282,417,1481797690335496131,,7.16691017151,-7.44574689865,-127.473991394,0.00143399997614,1.0,0.0,0.0,0.0,1.0,0.0,0.0,0.0,1.0,-1.8902438879,12.8048782349,-14.9390249252,1.0,0.0,0.0,0.0,1.0,0.0,0.0,0.0,1.0,-0.77093293457,-0.603338854892,9.23683000488,1.0,0.0,0.0,0.0,1.0,0.0,0.0,0.0,1.0
1481797690378969919,418,1481797690377953944,,7.95312643051,-7.50453853607,-127.751831055,0.00103399995714,1.0,0.0,0.0,0.0,1.0,0.0,0.0,0.0,1.0,-4.08536577225,4.32926845551,-0.853658556938,1.0,0.0,0.0,0.0,1.0,0.0,0.0,0.0,1.0,-4.13718046875,-1.42694418945,10.1849338623,1.0,0.0,0.0,0.0,1.0,0.0,0.0,0.0,1.0
1481797690422243865,419,1481797690420173011,,8.11710929871,-7.53845930099,-127.519851685,0.00097499997355,1.0,0.0,0.0,0.0,1.0,0.0,0.0,0.0,1.0,-2.13414645195,-11.8902444839,2.56097555161,1.0,0.0,0.0,0.0,1.0,0.0,0.0,0.0,1.0,-2.84909997559,-0.91458503418,9.59117243511,1.0,0.0,0.0,0.0,1.0,0.0,0.0,0.0,1.0
1481797690464035334,420,1481797690462883997,,7.3954076767,-7.55244827271,-127.262115479,0.0013569999719,1.0,0.0,0.0,0.0,1.0,0.0,0.0,0.0,1.0,-2.07317066193,-13.5365858078,5.30487823486,1.0,0.0,0.0,0.0,1.0,0.0,0.0,0.0,1.0,0.162805712891,-0.545877978516,10.1992990723,1.0,0.0,0.0,0.0,1.0,0.0,0.0,0.0,1.0
1481797690505236967,421,1481797690504177400,,6.81034040451,-7.45157670975,-126.923019409,0.00101699994411,1.0,0.0,0.0,0.0,1.0,0.0,0.0,0.0,1.0,-2.62195134163,18.5975627899,4.87804889679,1.0,0.0,0.0,0.0,1.0,0.0,0.0,0.0,1.0,2.26970317383,0.0909796630859,10.4722380615,1.0,0.0,0.0,0.0,1.0,0.0,0.0,0.0,1.0
1481797690547918683,422,1481797690546816720,,7.41066551208,-7.42785072327,-126.987052917,0.00101999996696,1.0,0.0,0.0,0.0,1.0,0.0,0.0,0.0,1.0,-1.2195122242,17.1951217651,-10.1829271317,1.0,0.0,0.0,0.0,1.0,0.0,0.0,0.0,1.0,-1.59932670898,-0.387860668945,10.1035310059,1.0,0.0,0.0,0.0,1.0,0.0,0.0,0.0,1.0
1481797690589679319,423,1481797690588489857,,8.35196208954,-7.53311777115,-127.090431213,0.00101999996696,1.0,0.0,0.0,0.0,1.0,0.0,0.0,0.0,1.0,-1.76829278469,1.8292683363,-0.426829278469,1.0,0.0,0.0,0.0,1.0,0.0,0.0,0.0,1.0,-3.31836350098,-1.32638771973,9.4954043687,1.0,0.0,0.0,0.0,1.0,0.0,0.0,0.0,1.0
1481797690632590198,424,1481797690631024232,,8.36595439911,-7.61907958984,-126.825759888,0.00105700001586,1.0,0.0,0.0,0.0,1.0,0.0,0.0,0.0,1.0,-2.56097555161,-1.40243899822,4.51219558716,1.0,0.0,0.0,0.0,1.0,0.0,0.0,0.0,1.0,-0.656011254883,-1.2737152832,9.99818613281,1.0,0.0,0.0,0.0,1.0,0.0,0.0,0.0,1.0
1481797690674082400,425,1481797690673135279,,8.12675380707,-7.57415342331,-126.728569031,0.00113099999726,1.0,0.0,0.0,0.0,1.0,0.0,0.0,0.0,1.0,-1.09756100178,-20.7317085266,-5.06097555161,1.0,0.0,0.0,0.0,1.0,0.0,0.0,0.0,1.0,-3.6296097168,-0.119710083008,9.47624958638,1.0,0.0,0.0,0.0,1.0,0.0,0.0,0.0,1.0
1481797690715978190,426,1481797690714981694,,7.43785047531,-7.48709774017,-126.231529236,0.00115400005598,1.0,0.0,0.0,0.0,1.0,0.0,0.0,0.0,1.0,-2.74390244484,12.6219520569,16.7682933807,1.0,0.0,0.0,0.0,1.0,0.0,0.0,0.0,1.0,3.77326181641,-0.92416184082,10.553640918,1.0,0.0,0.0,0.0,1.0,0.0,0.0,0.0,1.0
1481797690758361681,427,1481797690757374977,,7.33557987213,-7.43451690674,-126.185203552,0.00102199998219,1.0,0.0,0.0,0.0,1.0,0.0,0.0,0.0,1.0,-0.609756112099,0.731707334518,-10.6097564697,1.0,0.0,0.0,0.0,1.0,0.0,0.0,0.0,1.0,-0.976834277344,-0.450109912109,10.8265799072,1.0,0.0,0.0,0.0,1.0,0.0,0.0,0.0,1.0
1481797690800960273,428,1481797690799874560,,7.7866396904,-7.51508951187,-126.197784424,0.00101799995173,1.0,0.0,0.0,0.0,1.0,0.0,0.0,0.0,1.0,-1.2804877758,-5.54878091812,0.243902444839,1.0,0.0,0.0,0.0,1.0,0.0,0.0,0.0,1.0,-2.46602770996,-0.632069238281,9.60074924175,1.0,0.0,0.0,0.0,1.0,0.0,0.0,0.0,1.0
1481797690843674853,429,1481797690842038627,,7.50455570221,-7.48854351044,-125.861633301,0.00107500003651,1.0,0.0,0.0,0.0,1.0,0.0,0.0,0.0,1.0,-1.2195122242,-2.5,4.14634132385,1.0,0.0,0.0,0.0,1.0,0.0,0.0,0.0,1.0,-0.067037651051,-1.00556469727,9.74440075684,1.0,0.0,0.0,0.0,1.0,0.0,0.0,0.0,1.0
1481797690885321012,430,1481797690884287225,,7.12993192673,-7.46858644485,-125.820449829,0.000974000024144,1.0,0.0,0.0,0.0,1.0,0.0,0.0,0.0,1.0,0.0,-14.2073173523,0.548780500889,1.0,0.0,0.0,0.0,1.0,0.0,0.0,0.0,1.0,-2.18351191406,-0.545877978516,10.2711251221,1.0,0.0,0.0,0.0,1.0,0.0,0.0,0.0,1.0
1481797690927174771,431,1481797690926118380,,6.61876058578,-7.3912024498,-125.420669556,0.00102500000503,1.0,0.0,0.0,0.0,1.0,0.0,0.0,0.0,1.0,-0.548780500889,-6.09756088257,0.670731723309,1.0,0.0,0.0,0.0,1.0,0.0,0.0,0.0,1.0,0.277727392578,-0.512359155273,9.95987890625,1.0,0.0,0.0,0.0,1.0,0.0,0.0,0.0,1.0
1481797690969740082,432,1481797690968543850,,6.75760316849,-7.36236810684,-125.148422241,0.0010150000453,1.0,0.0,0.0,0.0,1.0,0.0,0.0,0.0,1.0,-5.48780488968,22.682926178,-2.19512200356,1.0,0.0,0.0,0.0,1.0,0.0,0.0,0.0,1.0,-0.694318481445,0.210689746094,9.00219824219,1.0,0.0,0.0,0.0,1.0,0.0,0.0,0.0,1.0
1481797691012546744,433,1481797691011172962,,7.48867559433,-7.41437578201,-125.585601807,0.00105700001586,1.0,0.0,0.0,0.0,1.0,0.0,0.0,0.0,1.0,-3.41463422775,7.92682981491,0.670731723309,1.0,0.0,0.0,0.0,1.0,0.0,0.0,0.0,1.0,-1.97761057129,-1.08696755371,10.553640918,1.0,0.0,0.0,0.0,1.0,0.0,0.0,0.0,1.0
1481797691056160217,434,1481797691053604630,,8.07498073578,-7.51219940186,-125.166770935,0.00108399998862,1.0,0.0,0.0,0.0,1.0,0.0,0.0,0.0,1.0,-4.57317066193,16.4024391174,4.45121955872,1.0,0.0,0.0,0.0,1.0,0.0,0.0,0.0,1.0,-2.88740720215,-0.675164868164,9.8784760498,1.0,0.0,0.0,0.0,1.0,0.0,0.0,0.0,1.0
1481797691097551900,435,1481797691095907132,,8.24694919586,-7.51960468292,-125.280540466,0.00118100002874,1.0,0.0,0.0,0.0,1.0,0.0,0.0,0.0,1.0,-2.13414645195,2.37804889679,5.54878091812,1.0,0.0,0.0,0.0,1.0,0.0,0.0,0.0,1.0,-2.03028300781,-0.344765039063,10.8792523438,1.0,0.0,0.0,0.0,1.0,0.0,0.0,0.0,1.0
1481797691140450071,436,1481797691138712180,,8.16504573822,-7.49904870987,-124.951187134,0.00126499996986,1.0,0.0,0.0,0.0,1.0,0.0,0.0,0.0,1.0,-1.58536589146,13.3536586761,6.21951246262,1.0,0.0,0.0,0.0,1.0,0.0,0.0,0.0,1.0,2.4756045166,0.0909796630859,11.2383825928,1.0,0.0,0.0,0.0,1.0,0.0,0.0,0.0,1.0
1481797691182615024,437,1481797691180706770,,8.58168506622,-7.54969644547,-124.90977478,0.00105700001586,1.0,0.0,0.0,0.0,1.0,0.0,0.0,0.0,1.0,0.365853667259,10.4878053665,-9.32926845551,1.0,0.0,0.0,0.0,1.0,0.0,0.0,0.0,1.0,-2.25533796387,-0.775721337891,9.61990285503,1.0,0.0,0.0,0.0,1.0,0.0,0.0,0.0,1.0
1481797691225747931,438,1481797691223296665,,9.15318202972,-7.61626434326,-124.975036621,0.00104200001806,1.0,0.0,0.0,0.0,1.0,0.0,0.0,0.0,1.0,-1.03658533096,-6.40243911743,1.03658533096,1.0,0.0,0.0,0.0,1.0,0.0,0.0,0.0,1.0,-3.45722719727,-1.02471831055,9.92157167969,1.0,0.0,0.0,0.0,1.0,0.0,0.0,0.0,1.0
1481797691268716153,439,1481797691265604219,,8.79817008972,-7.61490631104,-124.67288208,0.00115999998525,1.0,0.0,0.0,0.0,1.0,0.0,0.0,0.0,1.0,-0.792682945728,-26.5243911743,-0.731707334518,1.0,0.0,0.0,0.0,1.0,0.0,0.0,0.0,1.0,-2.42293208008,-0.675164868164,9.75397756348,1.0,0.0,0.0,0.0,1.0,0.0,0.0,0.0,1.0
1481797691310016691,440,1481797691307554227,,7.69336795807,-7.51131248474,-124.314247131,0.000972000008915,1.0,0.0,0.0,0.0,1.0,0.0,0.0,0.0,1.0,-2.13414645195,-24.4512195587,6.28048801422,1.0,0.0,0.0,0.0,1.0,0.0,0.0,0.0,1.0,-0.780509741211,-1.0534486574,10.0891657959,1.0,0.0,0.0,0.0,1.0,0.0,0.0,0.0,1.0
1481797691354288540,441,1481797691349604650,,6.64711713791,-7.37604093552,-123.920539856,0.000975999981165,1.0,0.0,0.0,0.0,1.0,0.0,0.0,0.0,1.0,-2.13414645195,-6.40243911743,1.03658533096,1.0,0.0,0.0,0.0,1.0,0.0,0.0,0.0,1.0,1.42215578613,-0.277727392578,10.2040874756,1.0,0.0,0.0,0.0,1.0,0.0,0.0,0.0,1.0
1481797691395404393,442,1481797691393493692,,6.43684339523,-7.34144258499,-123.802139282,0.00284299999475,1.0,0.0,0.0,0.0,1.0,0.0,0.0,0.0,1.0,-4.32926845551,18.9634151459,5.73170757294,1.0,0.0,0.0,0.0,1.0,0.0,0.0,0.0,1.0,1.24019645996,-0.15322890625,10.5057568848,1.0,0.0,0.0,0.0,1.0,0.0,0.0,0.0,1.0
1481797691435331306,443,1481797691433907004,,7.15503835678,-7.38236904144,-123.89276123,0.00113700004295,1.0,0.0,0.0,0.0,1.0,0.0,0.0,0.0,1.0,-3.29268312454,19.2682914734,-3.96341490746,1.0,0.0,0.0,0.0,1.0,0.0,0.0,0.0,1.0,-2.54743056641,-0.814028564453,10.3764699951,1.0,0.0,0.0,0.0,1.0,0.0,0.0,0.0,1.0
1481797691477715995,444,1481797691475748472,,7.91667699814,-7.46707677841,-123.907928467,0.00100100005511,1.0,0.0,0.0,0.0,1.0,0.0,0.0,0.0,1.0,-2.25609779358,3.41463422775,3.84146332741,1.0,0.0,0.0,0.0,1.0,0.0,0.0,0.0,1.0,-2.47081611328,-0.952892260742,10.433930835,1.0,0.0,0.0,0.0,1.0,0.0,0.0,0.0,1.0
1481797691520125631,445,1481797691518406073,,7.89969968796,-7.51019287109,-123.736244202,0.00102199998219,1.0,0.0,0.0,0.0,1.0,0.0,0.0,0.0,1.0,-0.12195122242,-15.548781395,-0.243902444839,1.0,0.0,0.0,0.0,1.0,0.0,0.0,0.0,1.0,-2.25533796387,-0.651222851562,10.2519715088,1.0,0.0,0.0,0.0,1.0,0.0,0.0,0.0,1.0
1481797691562276365,446,1481797691560471965,,7.47585296631,-7.45850563049,-123.208724976,0.00105099997018,1.0,0.0,0.0,0.0,1.0,0.0,0.0,0.0,1.0,-5.67073154449,28.3536586761,15.4878053665,1.0,0.0,0.0,0.0,1.0,0.0,0.0,0.0,1.0,0.407014282227,-0.881066210937,11.0660000732,1.0,0.0,0.0,0.0,1.0,0.0,0.0,0.0,1.0
1481797691604720689,447,1481797691603032328,,7.79623699188,-7.35499429703,-123.38886261,0.0010969999712,1.0,0.0,0.0,0.0,1.0,0.0,0.0,0.0,1.0,-0.487804889679,12.1951217651,-5.97560977936,1.0,0.0,0.0,0.0,1.0,0.0,0.0,0.0,1.0,-0.675164868164,-0.31124621582,11.3197854492,1.0,0.0,0.0,0.0,1.0,0.0,0.0,0.0,1.0
1481797691646565334,448,1481797691644799058,,8.27292919159,-7.48615503311,-123.451004028,0.00101899995934,1.0,0.0,0.0,0.0,1.0,0.0,0.0,0.0,1.0,1.76829278469,-22.8658542633,-0.975609779358,1.0,0.0,0.0,0.0,1.0,0.0,0.0,0.0,1.0,-2.16435844691,-1.37427175293,10.5727945312,1.0,0.0,0.0,0.0,1.0,0.0,0.0,0.0,1.0
1481797691699099509,449,1481797691686643755,,7.69238090515,-7.49112939835,-122.713142395,0.00106399995275,1.0,0.0,0.0,0.0,1.0,0.0,0.0,0.0,1.0,-4.87804889679,21.9512195587,17.0731716156,1.0,0.0,0.0,0.0,1.0,0.0,0.0,0.0,1.0,2.52827695312,-1.22583125,9.43315395649,1.0,0.0,0.0,0.0,1.0,0.0,0.0,0.0,1.0
1481797691730486912,450,1481797691729005111,,7.69663763046,-7.40685129166,-123.066131592,0.0010300000431,1.0,0.0,0.0,0.0,1.0,0.0,0.0,0.0,1.0,-1.8902438879,7.98780536652,-7.07317113876,1.0,0.0,0.0,0.0,1.0,0.0,0.0,0.0,1.0,-2.13562802699,0.483628735352,10.6829278076,1.0,0.0,0.0,0.0,1.0,0.0,0.0,0.0,1.0
1481797691773324980,451,1481797691771996926,,7.84431791306,-7.37114334106,-123.056663513,0.00107400002889,1.0,0.0,0.0,0.0,1.0,0.0,0.0,0.0,1.0,0.853658556938,-15.6097564697,6.70731735229,1.0,0.0,0.0,0.0,1.0,0.0,0.0,0.0,1.0,0.0861912597656,-0.861912597656,9.87368764648,1.0,0.0,0.0,0.0,1.0,0.0,0.0,0.0,1.0
1481797691815774407,452,1481797691814476874,,7.38590145111,-7.43726634979,-122.295097351,0.0012150000548,1.0,0.0,0.0,0.0,1.0,0.0,0.0,0.0,1.0,-2.13414645195,2.13414645195,3.96341490746,1.0,0.0,0.0,0.0,1.0,0.0,0.0,0.0,1.0,-1.81959326172,-1.08696755371,8.3509748061,1.0,0.0,0.0,0.0,1.0,0.0,0.0,0.0,1.0
1481797691858855232,453,1481797691856481308,,6.9950761795,-7.46262264252,-122.602310181,0.000985000049695,1.0,0.0,0.0,0.0,1.0,0.0,0.0,0.0,1.0,-4.02439022064,7.43902492523,8.04878044128,1.0,0.0,0.0,0.0,1.0,0.0,0.0,0.0,1.0,-0.77093293457,-0.531512805087,11.0707884766,1.0,0.0,0.0,0.0,1.0,0.0,0.0,0.0,1.0
1481797691899641090,454,1481797691898624438,,7.28020334244,-7.34509372711,-122.217590332,0.00101000000723,1.0,0.0,0.0,0.0,1.0,0.0,0.0,0.0,1.0,-1.70731711388,14.6951217651,0.975609779358,1.0,0.0,0.0,0.0,1.0,0.0,0.0,0.0,1.0,1.02471831055,0.244208569336,10.1514150391,1.0,0.0,0.0,0.0,1.0,0.0,0.0,0.0,1.0
1481797691943490966,455,1481797691940534916,,7.74661827087,-7.3998913765,-122.343704224,0.00106299994513,1.0,0.0,0.0,0.0,1.0,0.0,0.0,0.0,1.0,-0.853658556938,-0.0609756112099,-4.75609779358,1.0,0.0,0.0,0.0,1.0,0.0,0.0,0.0,1.0,-5.7987564209,-1.96803376465,9.66778688823,1.0,0.0,0.0,0.0,1.0,0.0,0.0,0.0,1.0
1481797691985402120,456,1481797691982739607,,7.66028594971,-7.4707736969,-122.12399292,0.0013119999785,1.0,0.0,0.0,0.0,1.0,0.0,0.0,0.0,1.0,-1.58536589146,-2.5,16.0975608826,1.0,0.0,0.0,0.0,1.0,0.0,0.0,0.0,1.0,1.02950671387,-0.943315454102,11.152191333,1.0,0.0,0.0,0.0,1.0,0.0,0.0,0.0,1.0
1481797692027377648,457,1481797692025551998,,7.61691427231,-7.43668031693,-121.670150757,0.00116099999286,1.0,0.0,0.0,0.0,1.0,0.0,0.0,0.0,1.0,-3.35365867615,6.46341466904,-10.7926826477,1.0,0.0,0.0,0.0,1.0,0.0,0.0,0.0,1.0,-0.330399829102,-0.0957680664062,9.50019277202,1.0,0.0,0.0,0.0,1.0,0.0,0.0,0.0,1.0
1481797692069146461,458,1481797692067383466,,8.07810878754,-7.39445734024,-121.973838806,0.00104700005613,1.0,0.0,0.0,0.0,1.0,0.0,0.0,0.0,1.0,-1.8292683363,-7.19512224197,-3.10975623131,1.0,0.0,0.0,0.0,1.0,0.0,0.0,0.0,1.0,-4.90811340332,-0.0957680664062,8.45631967915,1.0,0.0,0.0,0.0,1.0,0.0,0.0,0.0,1.0
1481797692121573659,459,1481797692109491024,,7.68131637573,-7.39596605301,-121.645401001,0.000973000016529,1.0,0.0,0.0,0.0,1.0,0.0,0.0,0.0,1.0,-2.56097555161,-17.6219520569,13.048781395,1.0,0.0,0.0,0.0,1.0,0.0,0.0,0.0,1.0,-0.143652099609,-1.0534486574,10.2232410889,1.0,0.0,0.0,0.0,1.0,0.0,0.0,0.0,1.0
1481797692154955095,460,1481797692153066112,,6.75847673416,-7.51479196548,-121.224159241,0.00121699995361,1.0,0.0,0.0,0.0,1.0,0.0,0.0,0.0,1.0,-2.31707310677,6.0365858078,4.08536577225,1.0,0.0,0.0,0.0,1.0,0.0,0.0,0.0,1.0,1.72861359863,-0.603338854892,10.3190091553,1.0,0.0,0.0,0.0,1.0,0.0,0.0,0.0,1.0
1481797692195986731,461,1481797692194291078,,7.04052877426,-7.43511247635,-121.221229553,0.00239900010638,1.0,0.0,0.0,0.0,1.0,0.0,0.0,0.0,1.0,-4.57317066193,27.1341457367,3.53658556938,1.0,0.0,0.0,0.0,1.0,0.0,0.0,0.0,1.0,-1.45088620605,1.11569797363,11.1330377197,1.0,0.0,0.0,0.0,1.0,0.0,0.0,0.0,1.0
1481797692238591364,462,1481797692236631028,,8.04839706421,-7.34733486176,-121.343482971,0.00132599996869,1.0,0.0,0.0,0.0,1.0,0.0,0.0,0.0,1.0,-3.23170733452,14.3902444839,-2.68292689323,1.0,0.0,0.0,0.0,1.0,0.0,0.0,0.0,1.0,-3.48595761719,-0.684741674805,11.0899420898,1.0,0.0,0.0,0.0,1.0,0.0,0.0,0.0,1.0
1481797692280272470,463,1481797692278533902,,8.54164218903,-7.52589559555,-121.384544373,0.00103499996476,1.0,0.0,0.0,0.0,1.0,0.0,0.0,0.0,1.0,-0.487804889679,-21.5243911743,-4.87804889679,1.0,0.0,0.0,0.0,1.0,0.0,0.0,0.0,1.0,-2.93050283203,-1.41736738281,10.0748005859,1.0,0.0,0.0,0.0,1.0,0.0,0.0,0.0,1.0
1481797692322741533,464,1481797692320616355,,7.96599340439,-7.63923883438,-120.851173401,0.00105900003109,1.0,0.0,0.0,0.0,1.0,0.0,0.0,0.0,1.0,-4.20731735229,21.2804889679,18.841463089,1.0,0.0,0.0,0.0,1.0,0.0,0.0,0.0,1.0,1.51792385254,-1.36948334961,10.3285859619,1.0,0.0,0.0,0.0,1.0,0.0,0.0,0.0,1.0
1481797692365079087,465,1481797692363314217,,8.05497741699,-7.56355762482,-120.925506592,0.00120399997104,1.0,0.0,0.0,0.0,1.0,0.0,0.0,0.0,1.0,-1.34146344662,-0.609756112099,-9.45121955872,1.0,0.0,0.0,0.0,1.0,0.0,0.0,0.0,1.0,-1.6041151123,0.287304199219,11.0276928467,1.0,0.0,0.0,0.0,1.0,0.0,0.0,0.0,1.0
1481797692406876180,466,1481797692405049697,,8.33898162842,-7.44122362137,-120.779075623,0.000960999983363,1.0,0.0,0.0,0.0,1.0,0.0,0.0,0.0,1.0,-0.304878056049,-14.1463422775,2.07317066193,1.0,0.0,0.0,0.0,1.0,0.0,0.0,0.0,1.0,-2.44208569336,-0.837970581055,9.40921193989,1.0,0.0,0.0,0.0,1.0,0.0,0.0,0.0,1.0
1481797692454643759,467,1481797692449990911,,7.46939325333,-7.45729017258,-120.500480652,0.0034020000603,1.0,0.0,0.0,0.0,1.0,0.0,0.0,0.0,1.0,0.365853667259,-22.9878044128,3.41463422775,1.0,0.0,0.0,0.0,1.0,0.0,0.0,0.0,1.0,-0.474051928711,-1.1875240965,10.7356002441,1.0,0.0,0.0,0.0,1.0,0.0,0.0,0.0,1.0
1481797692498300929,468,1481797692493003924,,6.85100507736,-7.52814674377,-119.94190979,0.00152799999341,1.0,0.0,0.0,0.0,1.0,0.0,0.0,0.0,1.0,-3.35365867615,6.40243911743,1.2195122242,1.0,0.0,0.0,0.0,1.0,0.0,0.0,0.0,1.0,0.421379492187,-0.263362164351,9.50019277202,1.0,0.0,0.0,0.0,1.0,0.0,0.0,0.0,1.0
1481797692537172180,469,1481797692534846537,,6.99095726013,-7.43872499466,-120.156112671,0.00127999996766,1.0,0.0,0.0,0.0,1.0,0.0,0.0,0.0,1.0,-4.02439022064,10.2439022064,-0.12195122242,1.0,0.0,0.0,0.0,1.0,0.0,0.0,0.0,1.0,-3.3949779541,0.0909796630859,9.91678327637,1.0,0.0,0.0,0.0,1.0,0.0,0.0,0.0,1.0
1481797692578390324,470,1481797692576543684,,7.35242652893,-7.34421539307,-119.949546814,0.00135799997952,1.0,0.0,0.0,0.0,1.0,0.0,0.0,0.0,1.0,-2.13414645195,-8.41463470459,2.74390244484,1.0,0.0,0.0,0.0,1.0,0.0,0.0,0.0,1.0,-3.6296097168,0.129286889648,10.4722380615,1.0,0.0,0.0,0.0,1.0,0.0,0.0,0.0,1.0
1481797692620390175,471,1481797692618708949,,6.77389478683,-7.36013746262,-119.761276245,0.000966000021435,1.0,0.0,0.0,0.0,1.0,0.0,0.0,0.0,1.0,-1.15853655338,-5.54878091812,7.50000047684,1.0,0.0,0.0,0.0,1.0,0.0,0.0,0.0,1.0,2.53306535645,-0.325611425781,10.2663367187,1.0,0.0,0.0,0.0,1.0,0.0,0.0,0.0,1.0
1481797692662840592,472,1481797692661088482,,6.89319610596,-7.49069881439,-119.486297607,0.000976999988779,1.0,0.0,0.0,0.0,1.0,0.0,0.0,0.0,1.0,-3.47560977936,3.04878044128,-18.1097564697,1.0,0.0,0.0,0.0,1.0,0.0,0.0,0.0,1.0,0.272938989258,-1.15879360352,9.22725319824,1.0,0.0,0.0,0.0,1.0,0.0,0.0,0.0,1.0
1481797692705211844,473,1481797692703412755,,7.28729772568,-7.43807315826,-119.610389709,0.00126499996986,1.0,0.0,0.0,0.0,1.0,0.0,0.0,0.0,1.0,-3.04878044128,17.8658542633,13.5365858078,1.0,0.0,0.0,0.0,1.0,0.0,0.0,0.0,1.0,-3.17471140137,-0.794874951172,10.3046439453,1.0,0.0,0.0,0.0,1.0,0.0,0.0,0.0,1.0
1481797692747398254,474,1481797692745660311,,7.72531938553,-7.40796852112,-119.346992493,0.000968999986071,1.0,0.0,0.0,0.0,1.0,0.0,0.0,0.0,1.0,-2.13414645195,-3.47560977936,-12.5,1.0,0.0,0.0,0.0,1.0,0.0,0.0,0.0,1.0,-1.36469494629,-0.871489404297,9.80665,1.0,0.0,0.0,0.0,1.0,0.0,0.0,0.0,1.0
1481797692792297750,475,1481797692787807920,,7.97301292419,-7.50697374344,-119.366737366,0.000974000024144,1.0,0.0,0.0,0.0,1.0,0.0,0.0,0.0,1.0,-4.87804889679,16.341463089,10.8536586761,1.0,0.0,0.0,0.0,1.0,0.0,0.0,0.0,1.0,-1.37427175293,-1.67115275879,9.39005832661,1.0,0.0,0.0,0.0,1.0,0.0,0.0,0.0,1.0
1481797692833016474,476,1481797692830213963,,8.42208766937,-7.54683542252,-119.301132202,0.00101999996696,1.0,0.0,0.0,0.0,1.0,0.0,0.0,0.0,1.0,-0.914634168148,-8.71951198578,-14.5731706619,1.0,0.0,0.0,0.0,1.0,0.0,0.0,0.0,1.0,-2.94965644531,-0.110133276367,9.50976957866,1.0,0.0,0.0,0.0,1.0,0.0,0.0,0.0,1.0
1481797692874401126,477,1481797692872687661,,8.4741268158,-7.54462575912,-119.05770874,0.00127699994482,1.0,0.0,0.0,0.0,1.0,0.0,0.0,0.0,1.0,-3.71951246262,14.7560987473,14.9390249252,1.0,0.0,0.0,0.0,1.0,0.0,0.0,0.0,1.0,3.39018955078,-1.16358193377,10.5153336914,1.0,0.0,0.0,0.0,1.0,0.0,0.0,0.0,1.0
