%time,field.header.seq,field.header.stamp,field.header.frame_id,field.orientation.x,field.orientation.y,field.orientation.z,field.orientation.w,field.orientation_covariance0,field.orientation_covariance1,field.orientation_covariance2,field.orientation_covariance3,field.orientation_covariance4,field.orientation_covariance5,field.orientation_covariance6,field.orientation_covariance7,field.orientation_covariance8,field.angular_velocity.x,field.angular_velocity.y,field.angular_velocity.z,field.angular_velocity_covariance0,field.angular_velocity_covariance1,field.angular_velocity_covariance2,field.angular_velocity_covariance3,field.angular_velocity_covariance4,field.angular_velocity_covariance5,field.angular_velocity_covariance6,field.angular_velocity_covariance7,field.angular_velocity_covariance8,field.linear_acceleration.x,field.linear_acceleration.y,field.linear_acceleration.z,field.linear_acceleration_covariance0,field.linear_acceleration_covariance1,field.linear_acceleration_covariance2,field.linear_acceleration_covariance3,field.linear_acceleration_covariance4,field.linear_acceleration_covariance5,field.linear_acceleration_covariance6,field.linear_acceleration_covariance7,field.linear_acceleration_covariance8
1481561747650559412,402,1481561747549759445,,14.2021484375,-12.443939209,-157.933242798,0.00166700000409,1.0,0.0,0.0,0.0,1.0,0.0,0.0,0.0,1.0,-2.25609779358,-11.5243911743,0.853658556938,1.0,0.0,0.0,0.0,1.0,0.0,0.0,0.0,1.0,-0.531512805087,-0.895431420898,9.68215151367,1.0,0.0,0.0,0.0,1.0,0.0,0.0,0.0,1.0
1481561747650595871,403,1481561747562434284,,13.9406471252,-12.4078512192,-157.887878418,0.00314699998125,1.0,0.0,0.0,0.0,1.0,0.0,0.0,0.0,1.0,-2.19512200356,-8.59756088257,-0.487804889679,1.0,0.0,0.0,0.0,1.0,0.0,0.0,0.0,1.0,-0.15801730957,-1.23540805664,9.95030209961,1.0,0.0,0.0,0.0,1.0,0.0,0.0,0.0,1.0
1481561747650791182,404,1481561747575612246,,13.7355537415,-12.3598556519,-157.820617676,0.00480500003323,1.0,0.0,0.0,0.0,1.0,0.0,0.0,0.0,1.0,-1.8292683363,-6.34146356583,1.58536589146,1.0,0.0,0.0,0.0,1.0,0.0,0.0,0.0,1.0,-0.646434448242,-1.02950671387,10.0556469727,1.0,0.0,0.0,0.0,1.0,0.0,0.0,0.0,1.0
1481561747650899671,405,1481561747588282815,,13.6286706924,-12.3016557693,-157.757995605,0.00275300000794,1.0,0.0,0.0,0.0,1.0,0.0,0.0,0.0,1.0,-0.487804889679,-7.68292665482,0.0609756112099,1.0,0.0,0.0,0.0,1.0,0.0,0.0,0.0,1.0,-3.18907661133,-0.440533105469,10.1035310059,1.0,0.0,0.0,0.0,1.0,0.0,0.0,0.0,1.0
1481561747650972067,406,1481561747599418494,,13.5475463867,-12.2846126556,-157.7472229,0.00264799990691,1.0,0.0,0.0,0.0,1.0,0.0,0.0,0.0,1.0,-2.56097555161,-16.341463089,-5.48780488968,1.0,0.0,0.0,0.0,1.0,0.0,0.0,0.0,1.0,-4.28083286062,-0.665588061523,10.3333743652,1.0,0.0,0.0,0.0,1.0,0.0,0.0,0.0,1.0
1481561747651005973,407,1481561747617603257,,13.2348089218,-12.2125072479,-157.707870483,0.00802300032228,1.0,0.0,0.0,0.0,1.0,0.0,0.0,0.0,1.0,-0.243902444839,-35.6707344055,-7.62195110321,1.0,0.0,0.0,0.0,1.0,0.0,0.0,0.0,1.0,-4.93684382324,-0.866701000977,10.1945106689,1.0,0.0,0.0,0.0,1.0,0.0,0.0,0.0,1.0
1481561747651109202,408,1481561747635100367,,12.6550951004,-12.098695755,-157.57321167,0.00547500001267,1.0,0.0,0.0,0.0,1.0,0.0,0.0,0.0,1.0,1.70731711388,-27.8048782349,5.85365867615,1.0,0.0,0.0,0.0,1.0,0.0,0.0,0.0,1.0,0.732625708008,-0.948103857422,10.2232410889,1.0,0.0,0.0,0.0,1.0,0.0,0.0,0.0,1.0
1481561747651143889,409,1481561747642869863,,12.2401189804,-11.9713973999,-157.380691528,0.00109000003431,1.0,0.0,0.0,0.0,1.0,0.0,0.0,0.0,1.0,-0.18292683363,-19.6951236725,10.4878053665,1.0,0.0,0.0,0.0,1.0,0.0,0.0,0.0,1.0,1.67115275879,-0.445321508789,10.553640918,1.0,0.0,0.0,0.0,1.0,0.0,0.0,0.0,1.0
1481561747658716043,410,1481561747656493813,,11.8333864212,-11.8943843842,-157.079101562,0.00396100012586,1.0,0.0,0.0,0.0,1.0,0.0,0.0,0.0,1.0,0.487804889679,11.7073173523,22.3780498505,1.0,0.0,0.0,0.0,1.0,0.0,0.0,0.0,1.0,5.41089575195,-0.656011254883,10.2711251221,1.0,0.0,0.0,0.0,1.0,0.0,0.0,0.0,1.0
1481561747670022138,411,1481561747667462775,,11.8222913742,-11.8390703201,-156.845413208,0.00496000004932,1.0,0.0,0.0,0.0,1.0,0.0,0.0,0.0,1.0,-5.0,26.7682933807,21.158536911,1.0,0.0,0.0,0.0,1.0,0.0,0.0,0.0,1.0,1.5801730957,-0.91458503418,9.193734375,1.0,0.0,0.0,0.0,1.0,0.0,0.0,0.0,1.0
1481561747681067297,412,1481561747678976734,,12.0113430023,-11.7738542557,-156.735992432,0.00140199996531,1.0,0.0,0.0,0.0,1.0,0.0,0.0,0.0,1.0,-5.36585378647,16.2804889679,2.68292689323,1.0,0.0,0.0,0.0,1.0,0.0,0.0,0.0,1.0,-2.17872351074,0.339976635742,9.07402429199,1.0,0.0,0.0,0.0,1.0,0.0,0.0,0.0,1.0
1481561747691252148,413,1481561747689701946,,12.1317596436,-11.7360486984,-156.788803101,0.00103699997999,1.0,0.0,0.0,0.0,1.0,0.0,0.0,0.0,1.0,-4.2682929039,2.68292689323,-11.6463422775,1.0,0.0,0.0,0.0,1.0,0.0,0.0,0.0,1.0,-4.98472785645,-0.392649072266,8.94952580566,1.0,0.0,0.0,0.0,1.0,0.0,0.0,0.0,1.0
1481561747702651264,414,1481561747700524815,,12.1594142914,-11.7163600922,-156.909622192,0.00117099995259,1.0,0.0,0.0,0.0,1.0,0.0,0.0,0.0,1.0,-2.01219511032,-14.4512205124,-16.158536911,1.0,0.0,0.0,0.0,1.0,0.0,0.0,0.0,1.0,-3.05500131836,-0.258573779297,8.8633345459,1.0,0.0,0.0,0.0,1.0,0.0,0.0,0.0,1.0
1481561747717978435,415,1481561747711330392,,11.9952964783,-11.7092761993,-156.992401123,0.00118100002874,1.0,0.0,0.0,0.0,1.0,0.0,0.0,0.0,1.0,0.426829278469,-9.26829242706,-6.70731735229,1.0,0.0,0.0,0.0,1.0,0.0,0.0,0.0,1.0,0.727837304687,-1.69030637207,9.94072529297,1.0,0.0,0.0,0.0,1.0,0.0,0.0,0.0,1.0
1481561747723599087,416,1481561747721894407,,11.8785400391,-11.6538743973,-156.96270752,0.00111599999946,1.0,0.0,0.0,0.0,1.0,0.0,0.0,0.0,1.0,1.34146344662,4.69512224197,5.12195110321,1.0,0.0,0.0,0.0,1.0,0.0,0.0,0.0,1.0,0.512359155273,-1.78128603516,11.0276928467,1.0,0.0,0.0,0.0,1.0,0.0,0.0,0.0,1.0
1481561747733910760,417,1481561747732208424,,11.8311576843,-11.5871334076,-156.837432861,0.00110700004734,1.0,0.0,0.0,0.0,1.0,0.0,0.0,0.0,1.0,-4.02439022064,18.7195110321,15.0609760284,1.0,0.0,0.0,0.0,1.0,0.0,0.0,0.0,1.0,2.10210891149,-1.09654436035,10.6446205811,1.0,0.0,0.0,0.0,1.0,0.0,0.0,0.0,1.0
1481561747744866076,418,1481561747743087334,,11.8895769119,-11.5467100143,-156.687423706,0.00108199997339,1.0,0.0,0.0,0.0,1.0,0.0,0.0,0.0,1.0,-4.08536577225,33.3536605835,16.341463089,1.0,0.0,0.0,0.0,1.0,0.0,0.0,0.0,1.0,0.229843359375,-0.076614453125,10.0939541992,1.0,0.0,0.0,0.0,1.0,0.0,0.0,0.0,1.0
1481561747758789139,419,1481561747753784369,,12.1695957184,-11.501666069,-156.624786377,0.00116999994498,1.0,0.0,0.0,0.0,1.0,0.0,0.0,0.0,1.0,-6.28048801422,21.8292694092,2.19512200356,1.0,0.0,0.0,0.0,1.0,0.0,0.0,0.0,1.0,-2.93050283203,-0.363918652344,8.90164177246,1.0,0.0,0.0,0.0,1.0,0.0,0.0,0.0,1.0
1481561747765733066,420,1481561747764424270,,12.3209648132,-11.5080919266,-156.686477661,0.00101699994411,1.0,0.0,0.0,0.0,1.0,0.0,0.0,0.0,1.0,-3.65853667259,9.5731716156,-9.26829242706,1.0,0.0,0.0,0.0,1.0,0.0,0.0,0.0,1.0,-2.46602770996,-0.828393774414,8.92079538574,1.0,0.0,0.0,0.0,1.0,0.0,0.0,0.0,1.0
1481561747776552132,421,1481561747774974223,,12.4623279572,-11.5174388885,-156.813461304,0.00113200000487,1.0,0.0,0.0,0.0,1.0,0.0,0.0,0.0,1.0,-0.853658556938,-4.20731735229,-16.5243911743,1.0,0.0,0.0,0.0,1.0,0.0,0.0,0.0,1.0,-3.41413156738,-1.21146604004,9.52413478862,1.0,0.0,0.0,0.0,1.0,0.0,0.0,0.0,1.0
1481561747792407114,422,1481561747786107194,,12.4537382126,-11.5258636475,-156.937728882,0.00108499999624,1.0,0.0,0.0,0.0,1.0,0.0,0.0,0.0,1.0,0.0,-11.7073173523,-13.4756097794,1.0,0.0,0.0,0.0,1.0,0.0,0.0,0.0,1.0,-4.07014282227,-1.56580788574,10.4435076416,1.0,0.0,0.0,0.0,1.0,0.0,0.0,0.0,1.0
1481561747800976919,423,1481561747798773231,,12.2929754257,-11.4521780014,-156.937820435,0.00619800016284,1.0,0.0,0.0,0.0,1.0,0.0,0.0,0.0,1.0,-0.975609779358,-7.98780536652,-3.59756112099,1.0,0.0,0.0,0.0,1.0,0.0,0.0,0.0,1.0,-1.2737152832,-0.732625708008,10.9941740234,1.0,0.0,0.0,0.0,1.0,0.0,0.0,0.0,1.0
1481561747811338696,424,1481561747808984123,,12.2701730728,-11.4738969803,-156.899002075,0.00112100003753,1.0,0.0,0.0,0.0,1.0,0.0,0.0,0.0,1.0,-2.13414645195,-6.89024400711,2.86585378647,1.0,0.0,0.0,0.0,1.0,0.0,0.0,0.0,1.0,-2.18830031738,-1.34075292969,10.2088758789,1.0,0.0,0.0,0.0,1.0,0.0,0.0,0.0,1.0
1481561747822846666,425,1481561747820292823,,12.1683206558,-11.4483070374,-156.795120239,0.00111700000707,1.0,0.0,0.0,0.0,1.0,0.0,0.0,0.0,1.0,-3.10975623131,-5.12195110321,5.36585378647,1.0,0.0,0.0,0.0,1.0,0.0,0.0,0.0,1.0,-1.30723410645,-0.933738647461,9.96945571289,1.0,0.0,0.0,0.0,1.0,0.0,0.0,0.0,1.0
1481561747833522868,426,1481561747830860640,,12.0431365967,-11.4066209793,-156.688522339,0.00104400003329,1.0,0.0,0.0,0.0,1.0,0.0,0.0,0.0,1.0,-2.37804889679,2.31707310677,7.74390268326,1.0,0.0,0.0,0.0,1.0,0.0,0.0,0.0,1.0,-0.426167895508,-1.22104284668,10.1945106689,1.0,0.0,0.0,0.0,1.0,0.0,0.0,0.0,1.0
1481561747846520987,427,1481561747843636052,,11.9193248749,-11.3337688446,-156.570907593,0.00384799996391,1.0,0.0,0.0,0.0,1.0,0.0,0.0,0.0,1.0,0.0609756112099,10.3658542633,11.0975618362,1.0,0.0,0.0,0.0,1.0,0.0,0.0,0.0,1.0,2.08774370153,0.00957680664062,10.7451770508,1.0,0.0,0.0,0.0,1.0,0.0,0.0,0.0,1.0
1481561747855702405,428,1481561747853348301,,11.9162511826,-11.2653284073,-156.486740112,0.00303700007498,1.0,0.0,0.0,0.0,1.0,0.0,0.0,0.0,1.0,-4.02439022064,17.2560977936,6.95121955872,1.0,0.0,0.0,0.0,1.0,0.0,0.0,0.0,1.0,0.952892260742,-0.0191536132812,10.5296989014,1.0,0.0,0.0,0.0,1.0,0.0,0.0,0.0,1.0
1481561747866764647,429,1481561747863790910,,11.9487009048,-11.2031478882,-156.452468872,0.000968999986071,1.0,0.0,0.0,0.0,1.0,0.0,0.0,0.0,1.0,-4.2682929039,20.0,3.71951246262,1.0,0.0,0.0,0.0,1.0,0.0,0.0,0.0,1.0,1.48919343262,0.0239420166016,10.0029745361,1.0,0.0,0.0,0.0,1.0,0.0,0.0,0.0,1.0
1481561747880818907,430,1481561747877341163,,12.0231161118,-11.1685810089,-156.437759399,0.00374999991618,1.0,0.0,0.0,0.0,1.0,0.0,0.0,0.0,1.0,-3.04878044128,33.5975608826,4.69512224197,1.0,0.0,0.0,0.0,1.0,0.0,0.0,0.0,1.0,2.61446821289,-0.670376464844,9.86889924316,1.0,0.0,0.0,0.0,1.0,0.0,0.0,0.0,1.0
1481561747891930577,431,1481561747887461326,,12.2076473236,-11.1571044922,-156.436569214,0.0011569999624,1.0,0.0,0.0,0.0,1.0,0.0,0.0,0.0,1.0,-3.23170733452,44.4512176514,5.97560977936,1.0,0.0,0.0,0.0,1.0,0.0,0.0,0.0,1.0,2.07816689489,-0.598550451572,9.39005832661,1.0,0.0,0.0,0.0,1.0,0.0,0.0,0.0,1.0
1481561747900940016,432,1481561747898524037,,12.5046348572,-11.1645860672,-156.46572876,0.00116300000809,1.0,0.0,0.0,0.0,1.0,0.0,0.0,0.0,1.0,-6.0365858078,52.4390258789,5.12195110321,1.0,0.0,0.0,0.0,1.0,0.0,0.0,0.0,1.0,2.54264216309,-1.32159931641,10.7308118408,1.0,0.0,0.0,0.0,1.0,0.0,0.0,0.0,1.0
1481561747910754764,433,1481561747909116594,,13.0198020935,-11.199177742,-156.523620605,0.000989999971353,1.0,0.0,0.0,0.0,1.0,0.0,0.0,0.0,1.0,-7.98780536652,46.1585388184,-2.62195134163,1.0,0.0,0.0,0.0,1.0,0.0,0.0,0.0,1.0,-3.4428619873,-0.253785375977,9.27513723145,1.0,0.0,0.0,0.0,1.0,0.0,0.0,0.0,1.0
1481561747921968672,434,1481561747920039826,,13.5494718552,-11.2809925079,-156.65322876,0.0010379999876,1.0,0.0,0.0,0.0,1.0,0.0,0.0,0.0,1.0,-14.3902444839,37.2560958862,-8.78048801422,1.0,0.0,0.0,0.0,1.0,0.0,0.0,0.0,1.0,-5.92325490723,-0.134075302102,10.8888291504,1.0,0.0,0.0,0.0,1.0,0.0,0.0,0.0,1.0
1481561747932657739,435,1481561747930704258,,14.0258960724,-11.4293861389,-156.814575195,0.000995000009425,1.0,0.0,0.0,0.0,1.0,0.0,0.0,0.0,1.0,-13.1097564697,18.5365848541,-13.2926826477,1.0,0.0,0.0,0.0,1.0,0.0,0.0,0.0,1.0,-7.40765993652,-0.411802685547,9.53849999858,1.0,0.0,0.0,0.0,1.0,0.0,0.0,0.0,1.0
1481561747943995136,436,1481561747941783428,,14.3123216629,-11.5284156799,-156.917999268,0.00100399996154,1.0,0.0,0.0,0.0,1.0,0.0,0.0,0.0,1.0,-14.5731706619,4.69512224197,-11.6463422775,1.0,0.0,0.0,0.0,1.0,0.0,0.0,0.0,1.0,-7.82903942871,-1.72861359863,8.72925925293,1.0,0.0,0.0,0.0,1.0,0.0,0.0,0.0,1.0
1481561747956188988,437,1481561747954523006,,14.4571018219,-11.6222295761,-156.989273071,0.00099400000181,1.0,0.0,0.0,0.0,1.0,0.0,0.0,0.0,1.0,-4.20731735229,-3.96341490746,-5.12195110321,1.0,0.0,0.0,0.0,1.0,0.0,0.0,0.0,1.0,-5.21457121582,-1.39821376953,8.80587370605,1.0,0.0,0.0,0.0,1.0,0.0,0.0,0.0,1.0
1481561747965421499,438,1481561747963216249,,14.4624786377,-11.6451416016,-157.009536743,0.00105199997779,1.0,0.0,0.0,0.0,1.0,0.0,0.0,0.0,1.0,2.43902444839,-5.60975599289,-2.01219511032,1.0,0.0,0.0,0.0,1.0,0.0,0.0,0.0,1.0,-2.70065947266,-1.83395847168,8.5999729478,1.0,0.0,0.0,0.0,1.0,0.0,0.0,0.0,1.0
1481561747980503568,439,1481561747978396806,,14.4143304825,-11.5785989761,-157.00428772,0.00220900005661,1.0,0.0,0.0,0.0,1.0,0.0,0.0,0.0,1.0,9.39024448395,-10.0609760284,-1.2195122242,1.0,0.0,0.0,0.0,1.0,0.0,0.0,0.0,1.0,-0.46447512207,-0.991199487305,9.37569311665,1.0,0.0,0.0,0.0,1.0,0.0,0.0,0.0,1.0
1481561747988796395,440,1481561747986819998,,14.2335500717,-11.4578018188,-156.98324585,0.0010529999854,1.0,0.0,0.0,0.0,1.0,0.0,0.0,0.0,1.0,9.26829242706,-5.60975599289,-1.8292683363,1.0,0.0,0.0,0.0,1.0,0.0,0.0,0.0,1.0,-0.986411083984,-1.24019645996,10.3860468018,1.0,0.0,0.0,0.0,1.0,0.0,0.0,0.0,1.0
1481561748000563582,441,1481561747998677237,,14.0368204117,-11.3266649246,-156.934738159,0.0025420000311,1.0,0.0,0.0,0.0,1.0,0.0,0.0,0.0,1.0,6.15853643417,0.0,1.2804877758,1.0,0.0,0.0,0.0,1.0,0.0,0.0,0.0,1.0,0.354341845703,-0.943315454102,10.5680061279,1.0,0.0,0.0,0.0,1.0,0.0,0.0,0.0,1.0
1481561748012055458,442,1481561748009641875,,13.9148693085,-11.2639255524,-156.904571533,0.00118599995039,1.0,0.0,0.0,0.0,1.0,0.0,0.0,0.0,1.0,-0.853658556938,8.47560977936,2.5,1.0,0.0,0.0,0.0,1.0,0.0,0.0,0.0,1.0,0.239420166016,-0.967257470703,10.6925046143,1.0,0.0,0.0,0.0,1.0,0.0,0.0,0.0,1.0
1481561748021159428,443,1481561748019726622,,13.8865499496,-11.2907266617,-156.88168335,0.00165400002152,1.0,0.0,0.0,0.0,1.0,0.0,0.0,0.0,1.0,-7.07317113876,13.9634151459,3.10975623131,1.0,0.0,0.0,0.0,1.0,0.0,0.0,0.0,1.0,0.416591088867,-0.976834277344,10.8936175537,1.0,0.0,0.0,0.0,1.0,0.0,0.0,0.0,1.0
1481561748032611252,444,1481561748030268137,,13.9653348923,-11.3216304779,-156.850662231,0.00119099998847,1.0,0.0,0.0,0.0,1.0,0.0,0.0,0.0,1.0,-9.75609779358,19.0853652954,2.92682933807,1.0,0.0,0.0,0.0,1.0,0.0,0.0,0.0,1.0,-1.35032973633,-0.430956298828,10.433930835,1.0,0.0,0.0,0.0,1.0,0.0,0.0,0.0,1.0
1481561748042998237,445,1481561748040979236,,14.1313819885,-11.3817987442,-156.808013916,0.00147799996193,1.0,0.0,0.0,0.0,1.0,0.0,0.0,0.0,1.0,-12.4390249252,20.3658542633,6.28048801422,1.0,0.0,0.0,0.0,1.0,0.0,0.0,0.0,1.0,-1.34554133301,-0.670376464844,9.85932243652,1.0,0.0,0.0,0.0,1.0,0.0,0.0,0.0,1.0
1481561748054654435,446,1481561748052365539,,14.3784627914,-11.4067001343,-156.732955933,0.00123699998949,1.0,0.0,0.0,0.0,1.0,0.0,0.0,0.0,1.0,-11.1585359573,22.3780498505,7.74390268326,1.0,0.0,0.0,0.0,1.0,0.0,0.0,0.0,1.0,-2.6862942627,-0.105344873047,9.61032604839,1.0,0.0,0.0,0.0,1.0,0.0,0.0,0.0,1.0
1481561748065266107,447,1481561748063050023,,14.6637983322,-11.4364719391,-156.670410156,0.00107200001366,1.0,0.0,0.0,0.0,1.0,0.0,0.0,0.0,1.0,-10.4268293381,16.2195110321,4.93902444839,1.0,0.0,0.0,0.0,1.0,0.0,0.0,0.0,1.0,-3.73974299316,-0.450109912109,9.8545340332,1.0,0.0,0.0,0.0,1.0,0.0,0.0,0.0,1.0
1481561748078098081,448,1481561748074050703,,14.8048725128,-11.452963829,-156.613876343,0.00105399999302,1.0,0.0,0.0,0.0,1.0,0.0,0.0,0.0,1.0,-7.80487823486,16.9512195587,6.46341466904,1.0,0.0,0.0,0.0,1.0,0.0,0.0,0.0,1.0,-1.42215578613,-0.517147558594,10.3525279785,1.0,0.0,0.0,0.0,1.0,0.0,0.0,0.0,1.0
1481561748087646632,449,1481561748084232949,,14.9475107193,-11.4550571442,-156.55406189,0.00104100001045,1.0,0.0,0.0,0.0,1.0,0.0,0.0,0.0,1.0,-2.80487799644,19.3902435303,8.65853691101,1.0,0.0,0.0,0.0,1.0,0.0,0.0,0.0,1.0,0.0,-0.292092584273,9.36132790669,1.0,0.0,0.0,0.0,1.0,0.0,0.0,0.0,1.0
1481561748098225074,450,1481561748094726340,,15.0653963089,-11.4417629242,-156.488586426,0.0012009999482,1.0,0.0,0.0,0.0,1.0,0.0,0.0,0.0,1.0,-4.08536577225,23.5975627899,9.08536529541,1.0,0.0,0.0,0.0,1.0,0.0,0.0,0.0,1.0,1.34554133301,-0.684741674805,10.4961800781,1.0,0.0,0.0,0.0,1.0,0.0,0.0,0.0,1.0
1481561748108312581,451,1481561748105062596,,15.2592935562,-11.4334945679,-156.448440552,0.00112599995919,1.0,0.0,0.0,0.0,1.0,0.0,0.0,0.0,1.0,-6.28048801422,27.317073822,5.91463422775,1.0,0.0,0.0,0.0,1.0,0.0,0.0,0.0,1.0,-1.35990654297,-0.301669427446,10.5584293213,1.0,0.0,0.0,0.0,1.0,0.0,0.0,0.0,1.0
1481561748119249929,452,1481561748117404624,,15.5276021957,-11.5211515427,-156.499725342,0.00178900000174,1.0,0.0,0.0,0.0,1.0,0.0,0.0,0.0,1.0,-8.71951198578,17.5000019073,-5.54878091812,1.0,0.0,0.0,0.0,1.0,0.0,0.0,0.0,1.0,-3.14598098145,-1.09654436035,9.72045874023,1.0,0.0,0.0,0.0,1.0,0.0,0.0,0.0,1.0
1481561748128747386,453,1481561748127265882,,15.7965164185,-11.6407690048,-156.584472656,0.00130500004161,1.0,0.0,0.0,0.0,1.0,0.0,0.0,0.0,1.0,-6.95121955872,9.63414573669,-7.07317113876,1.0,0.0,0.0,0.0,1.0,0.0,0.0,0.0,1.0,-5.47314499512,-1.1875240965,8.84418093262,1.0,0.0,0.0,0.0,1.0,0.0,0.0,0.0,1.0
1481561748141222539,454,1481561748139426557,,16.0129985809,-11.6950187683,-156.653594971,0.00218400009908,1.0,0.0,0.0,0.0,1.0,0.0,0.0,0.0,1.0,-3.10975623131,-2.86585378647,-8.35365867615,1.0,0.0,0.0,0.0,1.0,0.0,0.0,0.0,1.0,-6.40209523926,-1.08217922346,9.00698664551,1.0,0.0,0.0,0.0,1.0,0.0,0.0,0.0,1.0
1481561748151665461,455,1481561748149989219,,16.0472335815,-11.6762256622,-156.671142578,0.00112499995157,1.0,0.0,0.0,0.0,1.0,0.0,0.0,0.0,1.0,2.5,-6.28048801422,-0.792682945728,1.0,0.0,0.0,0.0,1.0,0.0,0.0,0.0,1.0,-3.18428820801,-0.531512805087,9.78749638672,1.0,0.0,0.0,0.0,1.0,0.0,0.0,0.0,1.0
1481561748162797703,456,1481561748161282502,,16.0107574463,-11.5893144608,-156.61769104,0.0011490000179,1.0,0.0,0.0,0.0,1.0,0.0,0.0,0.0,1.0,5.48780488968,-2.92682933807,3.59756112099,1.0,0.0,0.0,0.0,1.0,0.0,0.0,0.0,1.0,-1.57059628906,-1.31202250977,9.20331118164,1.0,0.0,0.0,0.0,1.0,0.0,0.0,0.0,1.0
1481561748173664478,457,1481561748171711622,,15.8625888824,-11.4589300156,-156.522201538,0.00118000002112,1.0,0.0,0.0,0.0,1.0,0.0,0.0,0.0,1.0,4.39024400711,3.7804877758,9.20731735229,1.0,0.0,0.0,0.0,1.0,0.0,0.0,0.0,1.0,1.59453830566,-1.10612116699,11.6262432617,1.0,0.0,0.0,0.0,1.0,0.0,0.0,0.0,1.0
1481561748184193702,458,1481561748182694021,,15.7743673325,-11.3512916565,-156.429504395,0.00140399998054,1.0,0.0,0.0,0.0,1.0,0.0,0.0,0.0,1.0,-0.853658556938,13.5975618362,7.43902492523,1.0,0.0,0.0,0.0,1.0,0.0,0.0,0.0,1.0,0.402225878906,-0.574608398438,11.2431709961,1.0,0.0,0.0,0.0,1.0,0.0,0.0,0.0,1.0
1481561748195131934,459,1481561748193469233,,15.8275165558,-11.3511896133,-156.392364502,0.00105199997779,1.0,0.0,0.0,0.0,1.0,0.0,0.0,0.0,1.0,-8.29268264771,10.0609760284,-0.853658556938,1.0,0.0,0.0,0.0,1.0,0.0,0.0,0.0,1.0,-2.52827695312,-0.928950244141,10.6158901611,1.0,0.0,0.0,0.0,1.0,0.0,0.0,0.0,1.0
1481561748206456728,460,1481561748204496580,,15.9020366669,-11.4227428436,-156.400024414,0.00112300005276,1.0,0.0,0.0,0.0,1.0,0.0,0.0,0.0,1.0,-13.2926826477,8.65853691101,-3.17073178291,1.0,0.0,0.0,0.0,1.0,0.0,0.0,0.0,1.0,-4.39096584473,-1.08217922346,10.0891657959,1.0,0.0,0.0,0.0,1.0,0.0,0.0,0.0,1.0
1481561748218011937,461,1481561748216243819,,16.0854873657,-11.5290737152,-156.415756226,0.00160399999004,1.0,0.0,0.0,0.0,1.0,0.0,0.0,0.0,1.0,-10.8536586761,-0.914634168148,-3.35365867615,1.0,0.0,0.0,0.0,1.0,0.0,0.0,0.0,1.0,-6.75164868164,-1.00077629395,8.52335849468,1.0,0.0,0.0,0.0,1.0,0.0,0.0,0.0,1.0
1481561748228781211,462,1481561748226750648,,16.1544914246,-11.6000318527,-156.421218872,0.00109999999404,1.0,0.0,0.0,0.0,1.0,0.0,0.0,0.0,1.0,-4.2682929039,-10.6097564697,-1.09756100178,1.0,0.0,0.0,0.0,1.0,0.0,0.0,0.0,1.0,-4.46758029785,-1.23540805664,8.66222219097,1.0,0.0,0.0,0.0,1.0,0.0,0.0,0.0,1.0
1481561748239863193,463,1481561748238275232,,16.1031131744,-11.5645742416,-156.36517334,0.00149900000542,1.0,0.0,0.0,0.0,1.0,0.0,0.0,0.0,1.0,2.5,-9.5731716156,3.65853667259,1.0,0.0,0.0,0.0,1.0,0.0,0.0,0.0,1.0,-2.15478164027,-1.47003981934,8.68137521973,1.0,0.0,0.0,0.0,1.0,0.0,0.0,0.0,1.0
1481561748250877415,464,1481561748248644040,,15.9485578537,-11.4316883087,-156.269866943,0.00121899996884,1.0,0.0,0.0,0.0,1.0,0.0,0.0,0.0,1.0,7.68292665482,-6.95121955872,5.18292713165,1.0,0.0,0.0,0.0,1.0,0.0,0.0,0.0,1.0,-0.397437475586,-0.972045874023,9.50498117534,1.0,0.0,0.0,0.0,1.0,0.0,0.0,0.0,1.0
1481561748261125651,465,1481561748259724407,,15.7194652557,-11.2796783447,-156.166931152,0.00131399999373,1.0,0.0,0.0,0.0,1.0,0.0,0.0,0.0,1.0,7.01219511032,1.40243899822,6.40243911743,1.0,0.0,0.0,0.0,1.0,0.0,0.0,0.0,1.0,0.933738647461,-0.76614453125,10.539275708,1.0,0.0,0.0,0.0,1.0,0.0,0.0,0.0,1.0
1481561748272080133,466,1481561748270478734,,15.6268072128,-11.1650810242,-156.115158081,0.0010529999854,1.0,0.0,0.0,0.0,1.0,0.0,0.0,0.0,1.0,1.2804877758,-0.0609756112099,-0.975609779358,1.0,0.0,0.0,0.0,1.0,0.0,0.0,0.0,1.0,-1.62805712891,-0.579396801758,10.7068698242,1.0,0.0,0.0,0.0,1.0,0.0,0.0,0.0,1.0
1481561748283817320,467,1481561748281606914,,15.5302648544,-11.1723175049,-156.145004272,0.00131600000896,1.0,0.0,0.0,0.0,1.0,0.0,0.0,0.0,1.0,-4.87804889679,-1.52439022064,-4.63414621353,1.0,0.0,0.0,0.0,1.0,0.0,0.0,0.0,1.0,-2.4756045166,-1.02950671387,10.3668931885,1.0,0.0,0.0,0.0,1.0,0.0,0.0,0.0,1.0
1481561748294426232,468,1481561748292293689,,15.5471687317,-11.2097158432,-156.17829895,0.00103399995714,1.0,0.0,0.0,0.0,1.0,0.0,0.0,0.0,1.0,-6.28048801422,-7.43902492523,-5.79268312454,1.0,0.0,0.0,0.0,1.0,0.0,0.0,0.0,1.0,-4.04141240234,-0.746990917969,9.48103915874,1.0,0.0,0.0,0.0,1.0,0.0,0.0,0.0,1.0
1481561748304977070,469,1481561748302875308,,15.5669851303,-11.2593765259,-156.189926147,0.00153899996076,1.0,0.0,0.0,0.0,1.0,0.0,0.0,0.0,1.0,-5.42682933807,-16.5853652954,-4.81707286835,1.0,0.0,0.0,0.0,1.0,0.0,0.0,0.0,1.0,-5.14753356934,-1.32638771973,9.54807680523,1.0,0.0,0.0,0.0,1.0,0.0,0.0,0.0,1.0
1481561748316182593,470,1481561748313737239,,15.4942092896,-11.2546463013,-156.164932251,0.00111700000707,1.0,0.0,0.0,0.0,1.0,0.0,0.0,0.0,1.0,0.609756112099,-23.7804889679,-2.56097555161,1.0,0.0,0.0,0.0,1.0,0.0,0.0,0.0,1.0,-4.34787021484,-1.31681091309,8.64785698101,1.0,0.0,0.0,0.0,1.0,0.0,0.0,0.0,1.0
1481561748327082596,471,1481561748324522400,,15.3233776093,-11.1676626205,-156.085464478,0.00101799995173,1.0,0.0,0.0,0.0,1.0,0.0,0.0,0.0,1.0,5.67073154449,-28.2317066193,0.731707334518,1.0,0.0,0.0,0.0,1.0,0.0,0.0,0.0,1.0,-3.47159240723,-0.885854614258,9.21288798828,1.0,0.0,0.0,0.0,1.0,0.0,0.0,0.0,1.0
1481561748337738486,472,1481561748335660892,,15.0393371582,-11.037525177,-156.010421753,0.00149099994451,1.0,0.0,0.0,0.0,1.0,0.0,0.0,0.0,1.0,9.14634132385,-35.4268302917,-3.53658556938,1.0,0.0,0.0,0.0,1.0,0.0,0.0,0.0,1.0,-1.92014973145,-0.512359155273,9.76834277344,1.0,0.0,0.0,0.0,1.0,0.0,0.0,0.0,1.0
1481561748348690261,473,1481561748346767196,,14.6080350876,-10.8958683014,-155.934326172,0.00114700000267,1.0,0.0,0.0,0.0,1.0,0.0,0.0,0.0,1.0,11.2195119858,-29.4512195587,0.18292683363,1.0,0.0,0.0,0.0,1.0,0.0,0.0,0.0,1.0,0.0622492431641,-1.06781401349,10.0221281494,1.0,0.0,0.0,0.0,1.0,0.0,0.0,0.0,1.0
1481561748359116985,474,1481561748357850376,,14.1449804306,-10.7089757919,-155.825119019,0.00126599997748,1.0,0.0,0.0,0.0,1.0,0.0,0.0,0.0,1.0,9.81707286835,-17.0731716156,3.7804877758,1.0,0.0,0.0,0.0,1.0,0.0,0.0,0.0,1.0,1.87705410156,-0.814028564453,10.0556469727,1.0,0.0,0.0,0.0,1.0,0.0,0.0,0.0,1.0
1481561748368933243,475,1481561748367435698,,13.7728586197,-10.5534057617,-155.728622437,0.0010890000267,1.0,0.0,0.0,0.0,1.0,0.0,0.0,0.0,1.0,7.07317113876,-0.18292683363,7.07317113876,1.0,0.0,0.0,0.0,1.0,0.0,0.0,0.0,1.0,2.63362182617,-0.952892260742,10.7691190674,1.0,0.0,0.0,0.0,1.0,0.0,0.0,0.0,1.0
1481561748379471478,476,1481561748378001380,,13.5853500366,-10.451669693,-155.626815796,0.00273500010371,1.0,0.0,0.0,0.0,1.0,0.0,0.0,0.0,1.0,-1.95121955872,17.4390239716,11.1585359573,1.0,0.0,0.0,0.0,1.0,0.0,0.0,0.0,1.0,4.36702382812,-0.110133276367,11.511321582,1.0,0.0,0.0,0.0,1.0,0.0,0.0,0.0,1.0
1481561748389966014,477,1481561748388519354,,13.6682024002,-10.4512052536,-155.555984497,0.0011419999646,1.0,0.0,0.0,0.0,1.0,0.0,0.0,0.0,1.0,-9.20731735229,19.5121955872,3.23170733452,1.0,0.0,0.0,0.0,1.0,0.0,0.0,0.0,1.0,-1.78607443848,0.201112939453,10.553640918,1.0,0.0,0.0,0.0,1.0,0.0,0.0,0.0,1.0
1481561748402268928,478,1481561748400500811,,13.8026189804,-10.6129455566,-155.605300903,0.00255599990487,1.0,0.0,0.0,0.0,1.0,0.0,0.0,0.0,1.0,-20.3048782349,14.2073173523,-4.08536577225,1.0,0.0,0.0,0.0,1.0,0.0,0.0,0.0,1.0,-2.56179577637,-0.517147558594,10.7978494873,1.0,0.0,0.0,0.0,1.0,0.0,0.0,0.0,1.0
1481561748416021627,479,1481561748411026962,,14.0687122345,-10.7789201736,-155.651565552,0.000959000026342,1.0,0.0,0.0,0.0,1.0,0.0,0.0,0.0,1.0,-14.0243902206,4.93902444839,-3.04878044128,1.0,0.0,0.0,0.0,1.0,0.0,0.0,0.0,1.0,-6.09084902344,-0.593762048251,8.3030907729,1.0,0.0,0.0,0.0,1.0,0.0,0.0,0.0,1.0
1481561748423395865,480,1481561748421567436,,14.2320480347,-10.8382005692,-155.655990601,0.00108499999624,1.0,0.0,0.0,0.0,1.0,0.0,0.0,0.0,1.0,-9.14634132385,-9.39024448395,-1.46341466904,1.0,0.0,0.0,0.0,1.0,0.0,0.0,0.0,1.0,-5.34864650879,-0.234631762695,9.27034882812,1.0,0.0,0.0,0.0,1.0,0.0,0.0,0.0,1.0
1481561748435526957,481,1481561748431946036,,14.2930011749,-10.8450937271,-155.627883911,0.00109399994835,1.0,0.0,0.0,0.0,1.0,0.0,0.0,0.0,1.0,0.670731723309,-21.8902435303,-2.5,1.0,0.0,0.0,0.0,1.0,0.0,0.0,0.0,1.0,-5.43483776855,-0.359130249023,8.65264538433,1.0,0.0,0.0,0.0,1.0,0.0,0.0,0.0,1.0
1481561748444010357,482,1481561748441983178,,14.190202713,-10.801325798,-155.576416016,0.00101200002246,1.0,0.0,0.0,0.0,1.0,0.0,0.0,0.0,1.0,6.7682929039,-24.6341457367,-3.04878044128,1.0,0.0,0.0,0.0,1.0,0.0,0.0,0.0,1.0,-4.63517441406,-1.04866025408,8.75320126953,1.0,0.0,0.0,0.0,1.0,0.0,0.0,0.0,1.0
1481561748456978476,483,1481561748452232924,,14.0021705627,-10.6572093964,-155.546951294,0.00100399996154,1.0,0.0,0.0,0.0,1.0,0.0,0.0,0.0,1.0,12.4390249252,-34.634147644,-7.19512224197,1.0,0.0,0.0,0.0,1.0,0.0,0.0,0.0,1.0,-4.38138903809,-0.636857641602,9.39484672993,1.0,0.0,0.0,0.0,1.0,0.0,0.0,0.0,1.0
1481561748464864743,484,1481561748462719284,,13.5973930359,-10.4867277145,-155.528656006,0.00098600005731,1.0,0.0,0.0,0.0,1.0,0.0,0.0,0.0,1.0,15.3658533096,-37.6219520569,-8.59756088257,1.0,0.0,0.0,0.0,1.0,0.0,0.0,0.0,1.0,-2.84909997559,-1.80043964844,8.9591026123,1.0,0.0,0.0,0.0,1.0,0.0,0.0,0.0,1.0
1481561748478575359,485,1481561748473821266,,13.0917158127,-10.2735109329,-155.489303589,0.0010450000409,1.0,0.0,0.0,0.0,1.0,0.0,0.0,0.0,1.0,12.3780488968,-31.0975627899,-3.96341490746,1.0,0.0,0.0,0.0,1.0,0.0,0.0,0.0,1.0,-0.794874951172,-0.885854614258,10.5296989014,1.0,0.0,0.0,0.0,1.0,0.0,0.0,0.0,1.0
1481561748486351887,486,1481561748483871638,,12.6271696091,-10.1134910583,-155.454696655,0.000997000024654,1.0,0.0,0.0,0.0,1.0,0.0,0.0,0.0,1.0,11.9512195587,-25.9146347046,-1.2195122242,1.0,0.0,0.0,0.0,1.0,0.0,0.0,0.0,1.0,0.344765039063,-0.0143652099609,10.3860468018,1.0,0.0,0.0,0.0,1.0,0.0,0.0,0.0,1.0
1481561748499231986,487,1481561748496170593,,12.2152442932,-10.0012998581,-155.409683228,0.00105700001586,1.0,0.0,0.0,0.0,1.0,0.0,0.0,0.0,1.0,-2.62195134163,-12.3170728683,4.51219558716,1.0,0.0,0.0,0.0,1.0,0.0,0.0,0.0,1.0,4.15633378977,-2.32716386754,13.1585323242,1.0,0.0,0.0,0.0,1.0,0.0,0.0,0.0,1.0
1481561748507712677,488,1481561748504585660,,11.9878911972,-10.0988769531,-155.286560059,0.000975999981165,1.0,0.0,0.0,0.0,1.0,0.0,0.0,0.0,1.0,-11.7073173523,-0.487804889679,8.96341514587,1.0,0.0,0.0,0.0,1.0,0.0,0.0,0.0,1.0,2.18351191406,-1.51792385254,10.6015249512,1.0,0.0,0.0,0.0,1.0,0.0,0.0,0.0,1.0
1481561748520038768,489,1481561748517265239,,11.8835783005,-10.2800140381,-155.21711731,0.00263700005598,1.0,0.0,0.0,0.0,1.0,0.0,0.0,0.0,1.0,-8.47560977936,7.37804937363,4.87804889679,1.0,0.0,0.0,0.0,1.0,0.0,0.0,0.0,1.0,-0.517147558594,-2.13083962367,8.3030907729,1.0,0.0,0.0,0.0,1.0,0.0,0.0,0.0,1.0
1481561748530027369,490,1481561748527708213,,11.8999185562,-10.3877973557,-155.192428589,0.0010890000267,1.0,0.0,0.0,0.0,1.0,0.0,0.0,0.0,1.0,-3.47560977936,7.37804937363,1.8902438879,1.0,0.0,0.0,0.0,1.0,0.0,0.0,0.0,1.0,-1.11090957031,-1.71903679199,8.61433815776,1.0,0.0,0.0,0.0,1.0,0.0,0.0,0.0,1.0
1481561748540820290,491,1481561748538556029,,11.9953594208,-10.2793598175,-155.147872925,0.00117900001351,1.0,0.0,0.0,0.0,1.0,0.0,0.0,0.0,1.0,-1.2804877758,4.81707286835,0.792682945728,1.0,0.0,0.0,0.0,1.0,0.0,0.0,0.0,1.0,-2.83473476562,1.04387185076,10.4291424316,1.0,0.0,0.0,0.0,1.0,0.0,0.0,0.0,1.0
1481561748550794412,492,1481561748548561141,,12.1053876877,-10.1775283813,-155.111175537,0.000992999994196,1.0,0.0,0.0,0.0,1.0,0.0,0.0,0.0,1.0,0.731707334518,-2.68292689323,0.426829278469,1.0,0.0,0.0,0.0,1.0,0.0,0.0,0.0,1.0,-4.11802685547,0.469263525391,10.5009684814,1.0,0.0,0.0,0.0,1.0,0.0,0.0,0.0,1.0
1481561748562091081,493,1481561748559016042,,12.1127681732,-10.0818195343,-155.061889648,0.00111099996138,1.0,0.0,0.0,0.0,1.0,0.0,0.0,0.0,1.0,-0.670731723309,-9.51219558716,0.243902444839,1.0,0.0,0.0,0.0,1.0,0.0,0.0,0.0,1.0,-3.14598098145,-0.402225878906,9.50498117534,1.0,0.0,0.0,0.0,1.0,0.0,0.0,0.0,1.0
1481561748573850820,494,1481561748569864796,,12.051692009,-10.0082960129,-155.033340454,0.000973000016529,1.0,0.0,0.0,0.0,1.0,0.0,0.0,0.0,1.0,-0.975609779358,-13.1707324982,-4.63414621353,1.0,0.0,0.0,0.0,1.0,0.0,0.0,0.0,1.0,-3.19865341797,-0.632069238281,9.84974562988,1.0,0.0,0.0,0.0,1.0,0.0,0.0,0.0,1.0
1481561748583602391,495,1481561748580089959,,11.887963295,-10.0271759033,-155.033966064,0.00101799995173,1.0,0.0,0.0,0.0,1.0,0.0,0.0,0.0,1.0,0.792682945728,-17.8048782349,-3.90243911743,1.0,0.0,0.0,0.0,1.0,0.0,0.0,0.0,1.0,-1.84832368164,-1.77649763184,9.86889924316,1.0,0.0,0.0,0.0,1.0,0.0,0.0,0.0,1.0
1481561748601064918,496,1481561748593545472,,11.6182060242,-10.0324630737,-154.992416382,0.0010450000409,1.0,0.0,0.0,0.0,1.0,0.0,0.0,0.0,1.0,0.18292683363,-7.07317113876,4.08536577225,1.0,0.0,0.0,0.0,1.0,0.0,0.0,0.0,1.0,-0.00957680664062,-1.56101948242,9.62947966167,1.0,0.0,0.0,0.0,1.0,0.0,0.0,0.0,1.0
1481561748606269894,497,1481561748603245012,,11.3805980682,-9.99716567993,-154.879257202,0.00212200009264,1.0,0.0,0.0,0.0,1.0,0.0,0.0,0.0,1.0,-2.92682933807,7.01219511032,8.78048801422,1.0,0.0,0.0,0.0,1.0,0.0,0.0,0.0,1.0,2.33195227086,-1.64721074219,10.4866032715,1.0,0.0,0.0,0.0,1.0,0.0,0.0,0.0,1.0
1481561748622421593,498,1481561748616813337,,11.3236455917,-9.97737121582,-154.775222778,0.00463199988008,1.0,0.0,0.0,0.0,1.0,0.0,0.0,0.0,1.0,-4.14634132385,23.1707324982,7.07317113876,1.0,0.0,0.0,0.0,1.0,0.0,0.0,0.0,1.0,1.40779057617,0.196324536133,9.52892319194,1.0,0.0,0.0,0.0,1.0,0.0,0.0,0.0,1.0
1481561748637032049,499,1481561748626955375,,11.3769760132,-9.9589548111,-154.737854004,0.00103199994192,1.0,0.0,0.0,0.0,1.0,0.0,0.0,0.0,1.0,-7.50000047684,30.7926845551,8.29268264771,1.0,0.0,0.0,0.0,1.0,0.0,0.0,0.0,1.0,1.94409174805,0.0430956298828,10.1992990723,1.0,0.0,0.0,0.0,1.0,0.0,0.0,0.0,1.0
1481561748642346192,500,1481561748639269956,,11.6273813248,-9.93877696991,-154.734786987,0.00295000011101,1.0,0.0,0.0,0.0,1.0,0.0,0.0,0.0,1.0,-6.82926845551,30.5487804413,1.70731711388,1.0,0.0,0.0,0.0,1.0,0.0,0.0,0.0,1.0,-0.545877978516,0.339976635742,10.9654436035,1.0,0.0,0.0,0.0,1.0,0.0,0.0,0.0,1.0
1481561748664802602,501,1481561748649306682,,11.9495391846,-9.97097110748,-154.757843018,0.00105399999302,1.0,0.0,0.0,0.0,1.0,0.0,0.0,0.0,1.0,-8.17073154449,30.9146327972,-1.58536589146,1.0,0.0,0.0,0.0,1.0,0.0,0.0,0.0,1.0,-2.3415290775,-0.430956298828,9.89762966309,1.0,0.0,0.0,0.0,1.0,0.0,0.0,0.0,1.0
1481561748665004320,502,1481561748660390903,,12.3183021545,-10.0425291061,-154.81401062,0.00116099999286,1.0,0.0,0.0,0.0,1.0,0.0,0.0,0.0,1.0,-9.87804889679,24.2073173523,-3.23170733452,1.0,0.0,0.0,0.0,1.0,0.0,0.0,0.0,1.0,-5.24809003906,-0.426167895508,10.0795889893,1.0,0.0,0.0,0.0,1.0,0.0,0.0,0.0,1.0
1481561748678553843,503,1481561748670555077,,12.6534261703,-10.1249513626,-154.885421753,0.00121300003957,1.0,0.0,0.0,0.0,1.0,0.0,0.0,0.0,1.0,-8.59756088257,9.32926845551,-7.62195110321,1.0,0.0,0.0,0.0,1.0,0.0,0.0,0.0,1.0,-5.93762011719,-1.00556469727,8.8393925293,1.0,0.0,0.0,0.0,1.0,0.0,0.0,0.0,1.0
1481561748684170797,504,1481561748681295237,,12.8858375549,-10.2147760391,-154.980789185,0.00110800005496,1.0,0.0,0.0,0.0,1.0,0.0,0.0,0.0,1.0,-4.63414621353,-10.7317075729,-12.0121955872,1.0,0.0,0.0,0.0,1.0,0.0,0.0,0.0,1.0,-8.10676682129,-1.41257897949,8.39407043599,1.0,0.0,0.0,0.0,1.0,0.0,0.0,0.0,1.0
1481561748696447878,505,1481561748692069460,,12.9361791611,-10.249089241,-155.081085205,0.000979000004008,1.0,0.0,0.0,0.0,1.0,0.0,0.0,0.0,1.0,1.52439022064,-29.8780498505,-17.0731716156,1.0,0.0,0.0,0.0,1.0,0.0,0.0,0.0,1.0,-8.58560773784,-0.952892260742,8.26478413086,1.0,0.0,0.0,0.0,1.0,0.0,0.0,0.0,1.0
1481561748705462161,506,1481561748703084255,,12.74122715,-10.2209205627,-155.195648193,0.00101899995934,1.0,0.0,0.0,0.0,1.0,0.0,0.0,0.0,1.0,8.78048801422,-50.9146347046,-18.4146347046,1.0,0.0,0.0,0.0,1.0,0.0,0.0,0.0,1.0,-5.55933625488,-0.962469067383,9.27513723145,1.0,0.0,0.0,0.0,1.0,0.0,0.0,0.0,1.0
1481561748720278084,507,1481561748713180928,,12.2709941864,-10.1143903732,-155.239395142,0.00102099997457,1.0,0.0,0.0,0.0,1.0,0.0,0.0,0.0,1.0,15.3048791885,-50.9146347046,-10.0609760284,1.0,0.0,0.0,0.0,1.0,0.0,0.0,0.0,1.0,-1.82917006836,-1.12048637695,9.76834277344,1.0,0.0,0.0,0.0,1.0,0.0,0.0,0.0,1.0
1481561748726384932,508,1481561748723313592,,11.6994915009,-9.86575031281,-155.208114624,0.00106499996036,1.0,0.0,0.0,0.0,1.0,0.0,0.0,0.0,1.0,24.2073173523,-40.8536605835,-3.23170733452,1.0,0.0,0.0,0.0,1.0,0.0,0.0,0.0,1.0,2.9927520752,0.397437475586,11.271901416,1.0,0.0,0.0,0.0,1.0,0.0,0.0,0.0,1.0
1481561748739736383,509,1481561748734221095,,11.1667346954,-9.60314178467,-155.06262207,0.00104799994733,1.0,0.0,0.0,0.0,1.0,0.0,0.0,0.0,1.0,4.51219558716,-15.1829271317,18.1097564697,1.0,0.0,0.0,0.0,1.0,0.0,0.0,0.0,1.0,4.2329482429,-2.54264216309,14.4897084473,1.0,0.0,0.0,0.0,1.0,0.0,0.0,0.0,1.0
1481561748748669156,510,1481561748744523601,,10.8492555618,-9.63780117035,-154.786911011,0.00103699997999,1.0,0.0,0.0,0.0,1.0,0.0,0.0,0.0,1.0,-13.9024391174,8.47560977936,19.3292694092,1.0,0.0,0.0,0.0,1.0,0.0,0.0,0.0,1.0,3.18907661133,-0.368707055664,10.6972930176,1.0,0.0,0.0,0.0,1.0,0.0,0.0,0.0,1.0
1481561748759379316,511,1481561748755471001,,10.8198204041,-9.81186294556,-154.649856567,0.00114099995699,1.0,0.0,0.0,0.0,1.0,0.0,0.0,0.0,1.0,-25.0,14.5731706619,8.96341514587,1.0,0.0,0.0,0.0,1.0,0.0,0.0,0.0,1.0,-1.41257897949,-1.98718737793,8.97825622559,1.0,0.0,0.0,0.0,1.0,0.0,0.0,0.0,1.0
1481561748768423912,512,1481561748765430227,,10.9216775894,-10.0515699387,-154.637619019,0.000987999956124,1.0,0.0,0.0,0.0,1.0,0.0,0.0,0.0,1.0,-7.62195110321,0.12195122242,-2.62195134163,1.0,0.0,0.0,0.0,1.0,0.0,0.0,0.0,1.0,-2.69587106934,-2.3654710941,7.95353791504,1.0,0.0,0.0,0.0,1.0,0.0,0.0,0.0,1.0
1481561748780579482,513,1481561748776490855,,10.9871435165,-10.1268939972,-154.698410034,0.00115599995479,1.0,0.0,0.0,0.0,1.0,0.0,0.0,0.0,1.0,1.95121955872,-7.86585378647,-6.64634132385,1.0,0.0,0.0,0.0,1.0,0.0,0.0,0.0,1.0,-3.09809694824,-0.416591088867,8.17859287109,1.0,0.0,0.0,0.0,1.0,0.0,0.0,0.0,1.0
1481561748789557567,514,1481561748786373832,,11.0495080948,-10.0676527023,-154.764938354,0.00097499997355,1.0,0.0,0.0,0.0,1.0,0.0,0.0,0.0,1.0,7.31707334518,-25.5487804413,-13.2317075729,1.0,0.0,0.0,0.0,1.0,0.0,0.0,0.0,1.0,-5.29597407227,-0.172382519531,9.42357714985,1.0,0.0,0.0,0.0,1.0,0.0,0.0,0.0,1.0
1481561748799942886,515,1481561748798111592,,10.8555488586,-9.87293148041,-154.811706543,0.00178900000174,1.0,0.0,0.0,0.0,1.0,0.0,0.0,0.0,1.0,5.79268312454,-33.4756126404,-9.02439117432,1.0,0.0,0.0,0.0,1.0,0.0,0.0,0.0,1.0,-6.29675036621,0.670376464844,12.2487356934,1.0,0.0,0.0,0.0,1.0,0.0,0.0,0.0,1.0
1481561748810367110,516,1481561748808188370,,10.5513849258,-9.76561927795,-154.755584717,0.000986999948509,1.0,0.0,0.0,0.0,1.0,0.0,0.0,0.0,1.0,-1.70731711388,-32.6219520569,-1.03658533096,1.0,0.0,0.0,0.0,1.0,0.0,0.0,0.0,1.0,-1.98718737793,-0.751779321289,11.0564232666,1.0,0.0,0.0,0.0,1.0,0.0,0.0,0.0,1.0
1481561748821576748,517,1481561748819011447,,10.2424612045,-9.76213550568,-154.648864746,0.00113099999726,1.0,0.0,0.0,0.0,1.0,0.0,0.0,0.0,1.0,-3.35365867615,-31.6463413239,5.0,1.0,0.0,0.0,0.0,1.0,0.0,0.0,0.0,1.0,-1.12048637695,-1.22583125,9.65342167827,1.0,0.0,0.0,0.0,1.0,0.0,0.0,0.0,1.0
1481561748832718521,518,1481561748829138849,,9.84269332886,-9.73860836029,-154.479309082,0.000976999988779,1.0,0.0,0.0,0.0,1.0,0.0,0.0,0.0,1.0,-4.87804889679,-23.658536911,10.3658542633,1.0,0.0,0.0,0.0,1.0,0.0,0.0,0.0,1.0,0.177170922852,-1.02950671387,9.62469125835,1.0,0.0,0.0,0.0,1.0,0.0,0.0,0.0,1.0
1481561748843392536,519,1481561748839960312,,9.45680713654,-9.74216747284,-154.312606812,0.00102099997457,1.0,0.0,0.0,0.0,1.0,0.0,0.0,0.0,1.0,-0.426829278469,-7.25609779358,14.3292694092,1.0,0.0,0.0,0.0,1.0,0.0,0.0,0.0,1.0,3.3949779541,-1.58974990234,9.88805285645,1.0,0.0,0.0,0.0,1.0,0.0,0.0,0.0,1.0
1481561748855002432,520,1481561748850727920,,9.22996711731,-9.73683547974,-154.148330688,0.000986999948509,1.0,0.0,0.0,0.0,1.0,0.0,0.0,0.0,1.0,0.0609756112099,2.31707310677,14.8170728683,1.0,0.0,0.0,0.0,1.0,0.0,0.0,0.0,1.0,3.07894333496,-1.58496149902,9.31344387349,1.0,0.0,0.0,0.0,1.0,0.0,0.0,0.0,1.0
1481561748863721352,521,1481561748861130269,,9.09399223328,-9.70469474792,-154.026977539,0.00103699997999,1.0,0.0,0.0,0.0,1.0,0.0,0.0,0.0,1.0,-3.65853667259,11.5243911743,9.69512176514,1.0,0.0,0.0,0.0,1.0,0.0,0.0,0.0,1.0,3.20344182129,-1.61369191895,10.0173397461,1.0,0.0,0.0,0.0,1.0,0.0,0.0,0.0,1.0
1481561748874316461,522,1481561748872080898,,9.0490322113,-9.6531085968,-153.927810669,0.000979000004008,1.0,0.0,0.0,0.0,1.0,0.0,0.0,0.0,1.0,-0.853658556938,23.7195129395,9.20731735229,1.0,0.0,0.0,0.0,1.0,0.0,0.0,0.0,1.0,2.37504819301,1.29286889648,10.8553103271,1.0,0.0,0.0,0.0,1.0,0.0,0.0,0.0,1.0
1481561748885699743,523,1481561748882828454,,9.16321182251,-9.55259513855,-153.875167847,0.000981000019237,1.0,0.0,0.0,0.0,1.0,0.0,0.0,0.0,1.0,-5.85365867615,33.7195129395,7.31707334518,1.0,0.0,0.0,0.0,1.0,0.0,0.0,0.0,1.0,1.30244570312,1.17794714373,9.69172832031,1.0,0.0,0.0,0.0,1.0,0.0,0.0,0.0,1.0
1481561748898816716,524,1481561748893708614,,9.36010742188,-9.48409843445,-153.825531006,0.00104100001045,1.0,0.0,0.0,0.0,1.0,0.0,0.0,0.0,1.0,-6.34146356583,44.2682914734,6.95121955872,1.0,0.0,0.0,0.0,1.0,0.0,0.0,0.0,1.0,1.80043964844,-0.00478840332031,9.38526992329,1.0,0.0,0.0,0.0,1.0,0.0,0.0,0.0,1.0
1481561748908477611,525,1481561748904564868,,9.69216918945,-9.48944950104,-153.821792603,0.00123599998187,1.0,0.0,0.0,0.0,1.0,0.0,0.0,0.0,1.0,-3.53658556938,52.5,6.15853643417,1.0,0.0,0.0,0.0,1.0,0.0,0.0,0.0,1.0,2.12126281703,-0.746990917969,10.5775829346,1.0,0.0,0.0,0.0,1.0,0.0,0.0,0.0,1.0
1481561748920006726,526,1481561748916317628,,10.1881961823,-9.54424858093,-153.880401611,0.00120900000911,1.0,0.0,0.0,0.0,1.0,0.0,0.0,0.0,1.0,-2.98780488968,50.2439041138,-1.8292683363,1.0,0.0,0.0,0.0,1.0,0.0,0.0,0.0,1.0,-1.69030637207,-0.905008227539,9.07881269531,1.0,0.0,0.0,0.0,1.0,0.0,0.0,0.0,1.0
1481561748930035431,527,1481561748926570499,,10.7066793442,-9.61937713623,-154.001159668,0.000985000049695,1.0,0.0,0.0,0.0,1.0,0.0,0.0,0.0,1.0,-6.40243911743,45.7926826477,-7.43902492523,1.0,0.0,0.0,0.0,1.0,0.0,0.0,0.0,1.0,-4.50588752441,-1.09175595703,9.79707319336,1.0,0.0,0.0,0.0,1.0,0.0,0.0,0.0,1.0
1481561748940576634,528,1481561748937366649,,11.2201433182,-9.6661233902,-154.153869629,0.00152900000103,1.0,0.0,0.0,0.0,1.0,0.0,0.0,0.0,1.0,-7.31707334518,35.9146347046,-9.63414573669,1.0,0.0,0.0,0.0,1.0,0.0,0.0,0.0,1.0,-4.88417138672,-0.0143652099609,10.0221281494,1.0,0.0,0.0,0.0,1.0,0.0,0.0,0.0,1.0
1481561748953700795,529,1481561748948171132,,11.6621847153,-9.75004768372,-154.293014526,0.00100100005511,1.0,0.0,0.0,0.0,1.0,0.0,0.0,0.0,1.0,-11.0365858078,30.4268321991,-6.7682929039,1.0,0.0,0.0,0.0,1.0,0.0,0.0,0.0,1.0,-3.7253777832,-0.292092584273,10.4291424316,1.0,0.0,0.0,0.0,1.0,0.0,0.0,0.0,1.0
1481561748961299198,530,1481561748958810928,,12.0655956268,-9.85165214539,-154.380111694,0.00141400005668,1.0,0.0,0.0,0.0,1.0,0.0,0.0,0.0,1.0,-13.1707324982,24.6951236725,-2.80487799644,1.0,0.0,0.0,0.0,1.0,0.0,0.0,0.0,1.0,-4.31914008718,-0.46447512207,9.35175110005,1.0,0.0,0.0,0.0,1.0,0.0,0.0,0.0,1.0
1481561748972657481,531,1481561748969531349,,12.4136590958,-9.96984195709,-154.423171997,0.000981000019237,1.0,0.0,0.0,0.0,1.0,0.0,0.0,0.0,1.0,-11.7073173523,20.975610733,-0.487804889679,1.0,0.0,0.0,0.0,1.0,0.0,0.0,0.0,1.0,-3.57693728027,-1.2976572998,9.52413478862,1.0,0.0,0.0,0.0,1.0,0.0,0.0,0.0,1.0
1481561748983130143,532,1481561748980522342,,12.7076654434,-10.113781929,-154.450424194,0.00103399995714,1.0,0.0,0.0,0.0,1.0,0.0,0.0,0.0,1.0,-7.80487823486,16.341463089,0.670731723309,1.0,0.0,0.0,0.0,1.0,0.0,0.0,0.0,1.0,-3.0406361084,-2.49475812988,9.65821008159,1.0,0.0,0.0,0.0,1.0,0.0,0.0,0.0,1.0
1481561748996238678,533,1481561748991232294,,12.9645328522,-10.1924333572,-154.462493896,0.00099400000181,1.0,0.0,0.0,0.0,1.0,0.0,0.0,0.0,1.0,-2.62195134163,7.43902492523,-2.74390244484,1.0,0.0,0.0,0.0,1.0,0.0,0.0,0.0,1.0,-5.08528432617,-1.45088620605,9.37090471333,1.0,0.0,0.0,0.0,1.0,0.0,0.0,0.0,1.0
1481561749004124997,534,1481561749001627612,,13.1387014389,-10.2361164093,-154.504592896,0.000980000011623,1.0,0.0,0.0,0.0,1.0,0.0,0.0,0.0,1.0,0.12195122242,-5.54878091812,-7.74390268326,1.0,0.0,0.0,0.0,1.0,0.0,0.0,0.0,1.0,-6.29196196289,-1.36469494629,9.16500395508,1.0,0.0,0.0,0.0,1.0,0.0,0.0,0.0,1.0
1481561749016989263,535,1481561749012753917,,13.1819114685,-10.2226114273,-154.55859375,0.00101400003769,1.0,0.0,0.0,0.0,1.0,0.0,0.0,0.0,1.0,2.74390244484,-23.2926845551,-11.2804880142,1.0,0.0,0.0,0.0,1.0,0.0,0.0,0.0,1.0,-7.03895288086,-0.545877978516,9.79707319336,1.0,0.0,0.0,0.0,1.0,0.0,0.0,0.0,1.0
1481561749025513808,536,1481561749023283193,,13.0270223618,-10.1644010544,-154.617340088,0.00159400003031,1.0,0.0,0.0,0.0,1.0,0.0,0.0,0.0,1.0,5.97560977936,-36.7073173523,-13.9634151459,1.0,0.0,0.0,0.0,1.0,0.0,0.0,0.0,1.0,-6.23928952637,-0.900219824219,9.23204160156,1.0,0.0,0.0,0.0,1.0,0.0,0.0,0.0,1.0
1481561749038966040,537,1481561749034237311,,12.6981992722,-10.1026315689,-154.662658691,0.00105199997779,1.0,0.0,0.0,0.0,1.0,0.0,0.0,0.0,1.0,8.96341514587,-47.2560958862,-11.4634151459,1.0,0.0,0.0,0.0,1.0,0.0,0.0,0.0,1.0,-3.64397492676,-1.2737152832,9.5432884019,1.0,0.0,0.0,0.0,1.0,0.0,0.0,0.0,1.0
1481561749045547833,538,1481561749043989403,,12.2539243698,-9.99245834351,-154.659347534,0.00107799994294,1.0,0.0,0.0,0.0,1.0,0.0,0.0,0.0,1.0,11.1585359573,-47.134147644,-6.28048801422,1.0,0.0,0.0,0.0,1.0,0.0,0.0,0.0,1.0,-1.40300217285,-0.9193734375,9.48582756206,1.0,0.0,0.0,0.0,1.0,0.0,0.0,0.0,1.0
1481561749058274964,539,1481561749054645970,,11.7890720367,-9.84741210938,-154.612457275,0.00105700001586,1.0,0.0,0.0,0.0,1.0,0.0,0.0,0.0,1.0,13.4146347046,-43.7804870605,-2.92682933807,1.0,0.0,0.0,0.0,1.0,0.0,0.0,0.0,1.0,-0.263362164351,-0.531512805087,9.71567033691,1.0,0.0,0.0,0.0,1.0,0.0,0.0,0.0,1.0
1481561749067238882,540,1481561749065332901,,11.2332468033,-9.67210578918,-154.510986328,0.00120699999388,1.0,0.0,0.0,0.0,1.0,0.0,0.0,0.0,1.0,4.81707286835,-31.0975627899,4.63414621353,1.0,0.0,0.0,0.0,1.0,0.0,0.0,0.0,1.0,2.03985981445,-1.65199914551,13.1872627441,1.0,0.0,0.0,0.0,1.0,0.0,0.0,0.0,1.0
1481561749079028465,541,1481561749076529258,,10.7756643295,-9.70466518402,-154.296127319,0.00138000003062,1.0,0.0,0.0,0.0,1.0,0.0,0.0,0.0,1.0,-6.21951246262,-9.32926845551,16.9512195587,1.0,0.0,0.0,0.0,1.0,0.0,0.0,0.0,1.0,3.9600095459,-1.2737152832,11.4011883057,1.0,0.0,0.0,0.0,1.0,0.0,0.0,0.0,1.0
1481561749089304357,542,1481561749087598948,,10.5033073425,-9.75864982605,-154.080963135,0.00120299996343,1.0,0.0,0.0,0.0,1.0,0.0,0.0,0.0,1.0,-7.07317113876,19.6341457367,24.5121955872,1.0,0.0,0.0,0.0,1.0,0.0,0.0,0.0,1.0,6.33505759277,-1.01035310059,9.32780908345,1.0,0.0,0.0,0.0,1.0,0.0,0.0,0.0,1.0
1481561749100370558,543,1481561749097876767,,10.5350885391,-9.80601119995,-153.849075317,0.00144799996633,1.0,0.0,0.0,0.0,1.0,0.0,0.0,0.0,1.0,-6.21951246262,42.9878044128,27.1341457367,1.0,0.0,0.0,0.0,1.0,0.0,0.0,0.0,1.0,4.40533105469,-0.837970581055,8.48983967144,1.0,0.0,0.0,0.0,1.0,0.0,0.0,0.0,1.0
1481561749110481034,544,1481561749109031978,,10.8939113617,-9.74643707275,-153.706481934,0.00128299999051,1.0,0.0,0.0,0.0,1.0,0.0,0.0,0.0,1.0,-6.09756088257,45.1219520569,16.158536911,1.0,0.0,0.0,0.0,1.0,0.0,0.0,0.0,1.0,-1.45567460937,0.191536132812,9.57680722515,1.0,0.0,0.0,0.0,1.0,0.0,0.0,0.0,1.0
1481561749121441349,545,1481561749119559691,,11.3447275162,-9.70797729492,-153.605255127,0.00127100001555,1.0,0.0,0.0,0.0,1.0,0.0,0.0,0.0,1.0,-6.34146356583,29.7560997009,7.50000047684,1.0,0.0,0.0,0.0,1.0,0.0,0.0,0.0,1.0,-3.0166940918,0.292092584273,10.7403886475,1.0,0.0,0.0,0.0,1.0,0.0,0.0,0.0,1.0
1481561749132470259,546,1481561749130492559,,11.7002325058,-9.73839473724,-153.609283447,0.001007999992,1.0,0.0,0.0,0.0,1.0,0.0,0.0,0.0,1.0,-10.4268293381,16.158536911,-6.21951246262,1.0,0.0,0.0,0.0,1.0,0.0,0.0,0.0,1.0,-6.01902297363,0.239420166016,9.70130512695,1.0,0.0,0.0,0.0,1.0,0.0,0.0,0.0,1.0
1481561749143634948,547,1481561749141751623,,11.9219293594,-9.79533290863,-153.719818115,0.00117499998305,1.0,0.0,0.0,0.0,1.0,0.0,0.0,0.0,1.0,-8.17073154449,-7.19512224197,-14.5731706619,1.0,0.0,0.0,0.0,1.0,0.0,0.0,0.0,1.0,-6.00465776367,-0.124498486328,9.32302068013,1.0,0.0,0.0,0.0,1.0,0.0,0.0,0.0,1.0
1481561749153727716,548,1481561749152060328,,11.9408950806,-9.85284328461,-153.799713135,0.00102800002787,1.0,0.0,0.0,0.0,1.0,0.0,0.0,0.0,1.0,-4.08536577225,-12.0731716156,-9.69512176514,1.0,0.0,0.0,0.0,1.0,0.0,0.0,0.0,1.0,-3.78283862305,-0.890643017578,9.02614025879,1.0,0.0,0.0,0.0,1.0,0.0,0.0,0.0,1.0
1481561749164770063,549,1481561749162633405,,11.8688821793,-9.81689739227,-153.820053101,0.00135999999475,1.0,0.0,0.0,0.0,1.0,0.0,0.0,0.0,1.0,5.67073154449,-2.01219511032,-2.98780488968,1.0,0.0,0.0,0.0,1.0,0.0,0.0,0.0,1.0,-2.98317526855,-0.627280834961,9.16021555176,1.0,0.0,0.0,0.0,1.0,0.0,0.0,0.0,1.0
1481561749174504186,550,1481561749172729402,,11.8190450668,-9.73709201813,-153.785903931,0.00102600001264,1.0,0.0,0.0,0.0,1.0,0.0,0.0,0.0,1.0,6.58536624908,-1.64634156227,3.65853667259,1.0,0.0,0.0,0.0,1.0,0.0,0.0,0.0,1.0,-0.751779321289,-1.5322890625,10.3525279785,1.0,0.0,0.0,0.0,1.0,0.0,0.0,0.0,1.0
1481561749185403408,551,1481561749183562114,,11.6646976471,-9.6288022995,-153.751663208,0.00101300003007,1.0,0.0,0.0,0.0,1.0,0.0,0.0,0.0,1.0,8.35365867615,5.36585378647,3.23170733452,1.0,0.0,0.0,0.0,1.0,0.0,0.0,0.0,1.0,2.06380183105,-0.598550451572,10.5296989014,1.0,0.0,0.0,0.0,1.0,0.0,0.0,0.0,1.0
1481561749197838613,552,1481561749195313364,,11.6343832016,-9.54643535614,-153.751998901,0.00109200004954,1.0,0.0,0.0,0.0,1.0,0.0,0.0,0.0,1.0,0.975609779358,8.84146404266,-0.975609779358,1.0,0.0,0.0,0.0,1.0,0.0,0.0,0.0,1.0,0.359130249023,-0.77093293457,11.0420580566,1.0,0.0,0.0,0.0,1.0,0.0,0.0,0.0,1.0
1481561749206795240,553,1481561749204678739,,11.601067543,-9.54038047791,-153.758453369,0.00124300003517,1.0,0.0,0.0,0.0,1.0,0.0,0.0,0.0,1.0,-6.95121955872,16.5243911743,0.426829278469,1.0,0.0,0.0,0.0,1.0,0.0,0.0,0.0,1.0,0.713472094727,-0.785298144531,11.511321582,1.0,0.0,0.0,0.0,1.0,0.0,0.0,0.0,1.0
1481561749220178722,554,1481561749218444459,,11.7876501083,-9.61403942108,-153.752334595,0.00412299996242,1.0,0.0,0.0,0.0,1.0,0.0,0.0,0.0,1.0,-12.8658542633,20.1219520569,1.34146344662,1.0,0.0,0.0,0.0,1.0,0.0,0.0,0.0,1.0,-1.4604630127,-0.316034619141,10.1274730225,1.0,0.0,0.0,0.0,1.0,0.0,0.0,0.0,1.0
1481561749231394922,555,1481561749229376650,,12.0584383011,-9.71360778809,-153.731872559,0.00112599995919,1.0,0.0,0.0,0.0,1.0,0.0,0.0,0.0,1.0,-14.5731706619,15.3658533096,2.19512200356,1.0,0.0,0.0,0.0,1.0,0.0,0.0,0.0,1.0,-3.89776030273,-0.248996972656,9.70130512695,1.0,0.0,0.0,0.0,1.0,0.0,0.0,0.0,1.0
1481561749242241749,556,1481561749240530506,,12.3805351257,-9.84960365295,-153.750534058,0.00117499998305,1.0,0.0,0.0,0.0,1.0,0.0,0.0,0.0,1.0,-12.0731716156,1.8292683363,-2.56097555161,1.0,0.0,0.0,0.0,1.0,0.0,0.0,0.0,1.0,-7.74284816895,-1.12048637695,9.04529387207,1.0,0.0,0.0,0.0,1.0,0.0,0.0,0.0,1.0
1481561749253904718,557,1481561749251651603,,12.5511665344,-9.95404434204,-153.79119873,0.00116200000048,1.0,0.0,0.0,0.0,1.0,0.0,0.0,0.0,1.0,-5.06097555161,-26.0365848541,-9.81707286835,1.0,0.0,0.0,0.0,1.0,0.0,0.0,0.0,1.0,-8.65264538433,-1.23540805664,8.26478413086,1.0,0.0,0.0,0.0,1.0,0.0,0.0,0.0,1.0
1481561749263281811,558,1481561749261825932,,12.3722829819,-9.95535755157,-153.859893799,0.00109899998643,1.0,0.0,0.0,0.0,1.0,0.0,0.0,0.0,1.0,4.08536577225,-47.5609779358,-15.9146347046,1.0,0.0,0.0,0.0,1.0,0.0,0.0,0.0,1.0,-6.78516750488,-1.58496149902,8.69574042969,1.0,0.0,0.0,0.0,1.0,0.0,0.0,0.0,1.0
1481561749277605862,559,1481561749272972133,,11.930932045,-9.87742614746,-153.907043457,0.00103199994192,1.0,0.0,0.0,0.0,1.0,0.0,0.0,0.0,1.0,13.841463089,-47.317073822,-10.4268293381,1.0,0.0,0.0,0.0,1.0,0.0,0.0,0.0,1.0,-2.56179577637,-1.04866025408,9.06444748535,1.0,0.0,0.0,0.0,1.0,0.0,0.0,0.0,1.0
1481561749285880356,560,1481561749283732085,,11.4398374557,-9.62378501892,-153.862854004,0.00105199997779,1.0,0.0,0.0,0.0,1.0,0.0,0.0,0.0,1.0,22.0121955872,-44.1463432312,-5.67073154449,1.0,0.0,0.0,0.0,1.0,0.0,0.0,0.0,1.0,-0.450109912109,-1.24019645996,9.27992563477,1.0,0.0,0.0,0.0,1.0,0.0,0.0,0.0,1.0
1481561749300717374,561,1481561749298708112,,10.7901878357,-9.27070808411,-153.742660522,0.00364300003275,1.0,0.0,0.0,0.0,1.0,0.0,0.0,0.0,1.0,15.0609760284,-17.5000019073,9.26829242706,1.0,0.0,0.0,0.0,1.0,0.0,0.0,0.0,1.0,6.53617053223,-1.13963999023,14.5471692871,1.0,0.0,0.0,0.0,1.0,0.0,0.0,0.0,1.0
1481561749309659990,562,1481561749306961617,,10.3994369507,-9.20417499542,-153.497543335,0.00102500000503,1.0,0.0,0.0,0.0,1.0,0.0,0.0,0.0,1.0,-11.0365858078,6.7682929039,25.8536586761,1.0,0.0,0.0,0.0,1.0,0.0,0.0,0.0,1.0,5.66946953125,-1.21625444336,13.0819178711,1.0,0.0,0.0,0.0,1.0,0.0,0.0,0.0,1.0
1481561749320800565,563,1481561749318789533,,10.3324995041,-9.41052913666,-153.289978027,0.00425500003621,1.0,0.0,0.0,0.0,1.0,0.0,0.0,0.0,1.0,-27.7439041138,28.3536586761,17.6829280853,1.0,0.0,0.0,0.0,1.0,0.0,0.0,0.0,1.0,4.42927307129,-0.502782348633,11.4299187256,1.0,0.0,0.0,0.0,1.0,0.0,0.0,0.0,1.0
1481561749331120259,564,1481561749328894331,,10.5186414719,-9.71141052246,-153.199401855,0.00116400001571,1.0,0.0,0.0,0.0,1.0,0.0,0.0,0.0,1.0,-11.8292684555,28.6585388184,11.8902444839,1.0,0.0,0.0,0.0,1.0,0.0,0.0,0.0,1.0,-0.612915625,-3.12682736816,7.90565388184,1.0,0.0,0.0,0.0,1.0,0.0,0.0,0.0,1.0
1481561749342112554,565,1481561749340089594,,10.8259000778,-9.7793674469,-153.174850464,0.00515200011432,1.0,0.0,0.0,0.0,1.0,0.0,0.0,0.0,1.0,-4.81707286835,21.2804889679,1.8292683363,1.0,0.0,0.0,0.0,1.0,0.0,0.0,0.0,1.0,-2.95923325195,-0.110133276367,8.94473740234,1.0,0.0,0.0,0.0,1.0,0.0,0.0,0.0,1.0
1481561749359035395,566,1481561749351115587,,11.1088285446,-9.73957061768,-153.189468384,0.00113500002772,1.0,0.0,0.0,0.0,1.0,0.0,0.0,0.0,1.0,-2.13414645195,12.1341466904,-2.92682933807,1.0,0.0,0.0,0.0,1.0,0.0,0.0,0.0,1.0,-4.77882680593,0.191536132812,10.1609918457,1.0,0.0,0.0,0.0,1.0,0.0,0.0,0.0,1.0
1481561749364025946,567,1481561749362126527,,11.3055028915,-9.66926765442,-153.209213257,0.00111399998423,1.0,0.0,0.0,0.0,1.0,0.0,0.0,0.0,1.0,0.243902444839,-1.58536589146,-3.41463422775,1.0,0.0,0.0,0.0,1.0,0.0,0.0,0.0,1.0,-4.06535441895,0.60812722168,9.7587659668,1.0,0.0,0.0,0.0,1.0,0.0,0.0,0.0,1.0
1481561749378420986,568,1481561749372494554,,11.3982219696,-9.55472755432,-153.226760864,0.00107300002128,1.0,0.0,0.0,0.0,1.0,0.0,0.0,0.0,1.0,1.2804877758,-11.6463422775,-8.90243911743,1.0,0.0,0.0,0.0,1.0,0.0,0.0,0.0,1.0,-5.02303508301,-0.0335188255255,9.33259748677,1.0,0.0,0.0,0.0,1.0,0.0,0.0,0.0,1.0
1481561749385463350,569,1481561749382623571,,11.3635625839,-9.50249004364,-153.268615723,0.00104700005613,1.0,0.0,0.0,0.0,1.0,0.0,0.0,0.0,1.0,3.59756112099,-18.9634151459,-9.69512176514,1.0,0.0,0.0,0.0,1.0,0.0,0.0,0.0,1.0,-5.24809003906,-0.560243188477,9.22725319824,1.0,0.0,0.0,0.0,1.0,0.0,0.0,0.0,1.0
1481561749395554555,570,1481561749393087795,,11.255645752,-9.44372749329,-153.323455811,0.00108299998101,1.0,0.0,0.0,0.0,1.0,0.0,0.0,0.0,1.0,4.39024400711,-32.8048782349,-13.841463089,1.0,0.0,0.0,0.0,1.0,0.0,0.0,0.0,1.0,-5.28639726562,-0.234631762695,9.15542714844,1.0,0.0,0.0,0.0,1.0,0.0,0.0,0.0,1.0
1481561749405588208,571,1481561749403540197,,10.9677200317,-9.43233680725,-153.373428345,0.00103599997237,1.0,0.0,0.0,0.0,1.0,0.0,0.0,0.0,1.0,-0.0609756112099,-41.4024391174,-9.14634132385,1.0,0.0,0.0,0.0,1.0,0.0,0.0,0.0,1.0,-3.97916315918,-1.94409174805,10.2807019287,1.0,0.0,0.0,0.0,1.0,0.0,0.0,0.0,1.0
1481561749416335556,572,1481561749414071973,,10.565785408,-9.44310379028,-153.350112915,0.00115100003313,1.0,0.0,0.0,0.0,1.0,0.0,0.0,0.0,1.0,-1.09756100178,-41.5853652954,-3.7804877758,1.0,0.0,0.0,0.0,1.0,0.0,0.0,0.0,1.0,-1.98239897461,-1.66636435547,10.0508585693,1.0,0.0,0.0,0.0,1.0,0.0,0.0,0.0,1.0
1481561749427368320,573,1481561749425509057,,10.1809263229,-9.47535228729,-153.280776978,0.00148400000762,1.0,0.0,0.0,0.0,1.0,0.0,0.0,0.0,1.0,-1.15853655338,-41.2195129395,-1.09756100178,1.0,0.0,0.0,0.0,1.0,0.0,0.0,0.0,1.0,-3.54341845703,-1.74776721191,9.38048151997,1.0,0.0,0.0,0.0,1.0,0.0,0.0,0.0,1.0
1481561749440306595,574,1481561749436298593,,9.77882575989,-9.47646617889,-153.199325562,0.00116500002332,1.0,0.0,0.0,0.0,1.0,0.0,0.0,0.0,1.0,1.2195122242,-44.0853652954,1.8292683363,1.0,0.0,0.0,0.0,1.0,0.0,0.0,0.0,1.0,-1.36469494629,-0.928950244141,9.62947966167,1.0,0.0,0.0,0.0,1.0,0.0,0.0,0.0,1.0
1481561749448643694,575,1481561749446808962,,9.24869823456,-9.4498500824,-153.0728302,0.00101600005291,1.0,0.0,0.0,0.0,1.0,0.0,0.0,0.0,1.0,0.12195122242,-36.6463432312,6.52439069748,1.0,0.0,0.0,0.0,1.0,0.0,0.0,0.0,1.0,-0.0287304199219,-1.15879360352,9.96945571289,1.0,0.0,0.0,0.0,1.0,0.0,0.0,0.0,1.0
1481561749460531037,576,1481561749457999121,,8.75212001801,-9.38048553467,-152.92829895,0.00152900000103,1.0,0.0,0.0,0.0,1.0,0.0,0.0,0.0,1.0,1.2195122242,-31.0975627899,6.09756088257,1.0,0.0,0.0,0.0,1.0,0.0,0.0,0.0,1.0,2.1930887207,-0.938527050781,10.7499654541,1.0,0.0,0.0,0.0,1.0,0.0,0.0,0.0,1.0
1481561749470352555,577,1481561749467993764,,8.30765628815,-9.32320213318,-152.789901733,0.00102700002026,1.0,0.0,0.0,0.0,1.0,0.0,0.0,0.0,1.0,0.0,-18.3536586761,9.45121955872,1.0,0.0,0.0,0.0,1.0,0.0,0.0,0.0,1.0,2.83473476562,-0.344765039063,10.6972930176,1.0,0.0,0.0,0.0,1.0,0.0,0.0,0.0,1.0
1481561749480582249,578,1481561749478782778,,7.95505475998,-9.27935504913,-152.618148804,0.00119199999608,1.0,0.0,0.0,0.0,1.0,0.0,0.0,0.0,1.0,0.304878056049,2.92682933807,17.3780498505,1.0,0.0,0.0,0.0,1.0,0.0,0.0,0.0,1.0,4.95599743652,-1.16837033709,10.2567599121,1.0,0.0,0.0,0.0,1.0,0.0,0.0,0.0,1.0
1481561749491911626,579,1481561749489735854,,7.81528759003,-9.23806190491,-152.37890625,0.00106100004632,1.0,0.0,0.0,0.0,1.0,0.0,0.0,0.0,1.0,-2.07317066193,31.0975627899,26.2804889679,1.0,0.0,0.0,0.0,1.0,0.0,0.0,0.0,1.0,5.90410129395,-0.952892260742,10.8217915039,1.0,0.0,0.0,0.0,1.0,0.0,0.0,0.0,1.0
1481561749502431996,580,1481561749500644243,,8.00906944275,-9.23885917664,-152.133483887,0.00110600003973,1.0,0.0,0.0,0.0,1.0,0.0,0.0,0.0,1.0,-5.67073154449,51.7682952881,29.4512195587,1.0,0.0,0.0,0.0,1.0,0.0,0.0,0.0,1.0,3.27526787109,-1.24019645996,9.51455798198,1.0,0.0,0.0,0.0,1.0,0.0,0.0,0.0,1.0
1481561749512719762,581,1481561749510844198,,8.44311714172,-9.1641740799,-151.967849731,0.00100899999961,1.0,0.0,0.0,0.0,1.0,0.0,0.0,0.0,1.0,-8.10975551605,55.182926178,15.1829271317,1.0,0.0,0.0,0.0,1.0,0.0,0.0,0.0,1.0,0.565031591797,1.21625444336,9.90241806641,1.0,0.0,0.0,0.0,1.0,0.0,0.0,0.0,1.0
1481561749523536485,582,1481561749521950086,,9.01598262787,-9.15830516815,-151.974502563,0.00110700004734,1.0,0.0,0.0,0.0,1.0,0.0,0.0,0.0,1.0,-9.39024448395,39.390247345,-0.365853667259,1.0,0.0,0.0,0.0,1.0,0.0,0.0,0.0,1.0,-1.88184250488,0.579396801758,8.00621035156,1.0,0.0,0.0,0.0,1.0,0.0,0.0,0.0,1.0
1481561749534607165,583,1481561749532764882,,9.375041008,-9.13253498077,-152.027069092,0.00116999994498,1.0,0.0,0.0,0.0,1.0,0.0,0.0,0.0,1.0,-1.95121955872,34.3292694092,-3.84146332741,1.0,0.0,0.0,0.0,1.0,0.0,0.0,0.0,1.0,-2.26970317383,0.46447512207,8.5520889146,1.0,0.0,0.0,0.0,1.0,0.0,0.0,0.0,1.0
1481561749546881798,584,1481561749544513110,,9.82373809814,-9.14013671875,-152.145462036,0.00176799995825,1.0,0.0,0.0,0.0,1.0,0.0,0.0,0.0,1.0,-1.2195122242,27.3780498505,-8.78048801422,1.0,0.0,0.0,0.0,1.0,0.0,0.0,0.0,1.0,-3.43328518066,-0.579396801758,9.50498117534,1.0,0.0,0.0,0.0,1.0,0.0,0.0,0.0,1.0
1481561749557264616,585,1481561749554746971,,10.1563844681,-9.11303520203,-152.269927979,0.00112100003753,1.0,0.0,0.0,0.0,1.0,0.0,0.0,0.0,1.0,-0.731707334518,11.0365858078,-13.2317075729,1.0,0.0,0.0,0.0,1.0,0.0,0.0,0.0,1.0,-5.63116230469,-0.225054956055,10.0987426025,1.0,0.0,0.0,0.0,1.0,0.0,0.0,0.0,1.0
1481561749567294311,586,1481561749564786874,,10.3586988449,-9.13028907776,-152.436264038,0.00101999996696,1.0,0.0,0.0,0.0,1.0,0.0,0.0,0.0,1.0,-3.71951246262,-2.31707310677,-18.7804889679,1.0,0.0,0.0,0.0,1.0,0.0,0.0,0.0,1.0,-6.0812722168,-0.837970581055,10.2711251221,1.0,0.0,0.0,0.0,1.0,0.0,0.0,0.0,1.0
1481561749580075400,587,1481561749575859585,,10.4525032043,-9.17979431152,-152.619003296,0.00112399994396,1.0,0.0,0.0,0.0,1.0,0.0,0.0,0.0,1.0,-1.8292683363,-20.3048782349,-21.158536911,1.0,0.0,0.0,0.0,1.0,0.0,0.0,0.0,1.0,-6.53617053223,-1.16358193377,9.15063874512,1.0,0.0,0.0,0.0,1.0,0.0,0.0,0.0,1.0
1481561749588832132,588,1481561749586792974,,10.309876442,-9.21124744415,-152.773971558,0.000974000024144,1.0,0.0,0.0,0.0,1.0,0.0,0.0,0.0,1.0,0.609756112099,-26.158536911,-14.9390249252,1.0,0.0,0.0,0.0,1.0,0.0,0.0,0.0,1.0,-2.07816689489,-1.54186586914,10.3046439453,1.0,0.0,0.0,0.0,1.0,0.0,0.0,0.0,1.0
1481561749601168535,589,1481561749597992195,,10.0110731125,-9.21363162994,-152.809188843,0.00126199994702,1.0,0.0,0.0,0.0,1.0,0.0,0.0,0.0,1.0,3.17073178291,-10.9756097794,-2.13414645195,1.0,0.0,0.0,0.0,1.0,0.0,0.0,0.0,1.0,2.41335541957,-1.99197578125,10.4482960449,1.0,0.0,0.0,0.0,1.0,0.0,0.0,0.0,1.0
1481561749609757507,590,1481561749608128973,,9.83042526245,-9.17874908447,-152.697967529,0.000988999963738,1.0,0.0,0.0,0.0,1.0,0.0,0.0,0.0,1.0,-0.487804889679,9.51219558716,14.9390249252,1.0,0.0,0.0,0.0,1.0,0.0,0.0,0.0,1.0,2.22660754395,-1.2737152832,11.166556543,1.0,0.0,0.0,0.0,1.0,0.0,0.0,0.0,1.0
1481561749622344170,591,1481561749618683301,,9.77305030823,-9.19889354706,-152.518508911,0.00117199996021,1.0,0.0,0.0,0.0,1.0,0.0,0.0,0.0,1.0,-5.60975599289,30.9146327972,22.1951236725,1.0,0.0,0.0,0.0,1.0,0.0,0.0,0.0,1.0,3.90254870605,-0.833182177734,9.7827079834,1.0,0.0,0.0,0.0,1.0,0.0,0.0,0.0,1.0
1481561749631410223,592,1481561749629595440,,9.99931812286,-9.28409957886,-152.405090332,0.00101799995173,1.0,0.0,0.0,0.0,1.0,0.0,0.0,0.0,1.0,-8.41463470459,32.4390220642,11.4024391174,1.0,0.0,0.0,0.0,1.0,0.0,0.0,0.0,1.0,-0.61770402832,-1.61369191895,9.2176763916,1.0,0.0,0.0,0.0,1.0,0.0,0.0,0.0,1.0
1481561749641812521,593,1481561749639974612,,10.2933387756,-9.38401889801,-152.417053223,0.00107500003651,1.0,0.0,0.0,0.0,1.0,0.0,0.0,0.0,1.0,-6.34146356583,18.1707305908,-4.93902444839,1.0,0.0,0.0,0.0,1.0,0.0,0.0,0.0,1.0,-2.72460148926,-1.16837033709,9.03571706543,1.0,0.0,0.0,0.0,1.0,0.0,0.0,0.0,1.0
1481561749653247730,594,1481561749650825085,,10.5625305176,-9.46564102173,-152.534622192,0.00109000003431,1.0,0.0,0.0,0.0,1.0,0.0,0.0,0.0,1.0,-1.70731711388,1.95121955872,-13.4146347046,1.0,0.0,0.0,0.0,1.0,0.0,0.0,0.0,1.0,-5.29597407227,-1.01035310059,9.23204160156,1.0,0.0,0.0,0.0,1.0,0.0,0.0,0.0,1.0
1481561749664917834,595,1481561749661189830,,10.6778802872,-9.47637844086,-152.651657104,0.00122800003737,1.0,0.0,0.0,0.0,1.0,0.0,0.0,0.0,1.0,-0.18292683363,-7.13414621353,-16.8292694092,1.0,0.0,0.0,0.0,1.0,0.0,0.0,0.0,1.0,-7.39329472656,-0.885854614258,10.0748005859,1.0,0.0,0.0,0.0,1.0,0.0,0.0,0.0,1.0
1481561749673593160,596,1481561749671870616,,10.6532964706,-9.4172668457,-152.753768921,0.00097499997355,1.0,0.0,0.0,0.0,1.0,0.0,0.0,0.0,1.0,-0.0609756112099,-12.3780488968,-9.14634132385,1.0,0.0,0.0,0.0,1.0,0.0,0.0,0.0,1.0,-3.55299526367,0.148440512063,11.01811604,1.0,0.0,0.0,0.0,1.0,0.0,0.0,0.0,1.0
1481561749684235509,597,1481561749682343799,,10.5358257294,-9.34160232544,-152.714401245,0.00106999999844,1.0,0.0,0.0,0.0,1.0,0.0,0.0,0.0,1.0,-1.2804877758,-3.04878044128,6.7682929039,1.0,0.0,0.0,0.0,1.0,0.0,0.0,0.0,1.0,0.253785375977,0.076614453125,11.2527478027,1.0,0.0,0.0,0.0,1.0,0.0,0.0,0.0,1.0
1481561749694785931,598,1481561749692733596,,10.4609117508,-9.3012342453,-152.570510864,0.00098600005731,1.0,0.0,0.0,0.0,1.0,0.0,0.0,0.0,1.0,-4.69512224197,13.7195129395,16.4634151459,1.0,0.0,0.0,0.0,1.0,0.0,0.0,0.0,1.0,1.63284553223,-0.881066210937,10.285490332,1.0,0.0,0.0,0.0,1.0,0.0,0.0,0.0,1.0
1481561749705542653,599,1481561749703223289,,10.4890623093,-9.30598068237,-152.420883179,0.00107300002128,1.0,0.0,0.0,0.0,1.0,0.0,0.0,0.0,1.0,-5.06097555161,24.817073822,15.975610733,1.0,0.0,0.0,0.0,1.0,0.0,0.0,0.0,1.0,2.73896669922,-0.828393774414,10.4482960449,1.0,0.0,0.0,0.0,1.0,0.0,0.0,0.0,1.0
1481561749715886149,600,1481561749713489389,,10.6402006149,-9.35091209412,-152.319473267,0.00105800002348,1.0,0.0,0.0,0.0,1.0,0.0,0.0,0.0,1.0,-4.02439022064,29.1463413239,11.2195119858,1.0,0.0,0.0,0.0,1.0,0.0,0.0,0.0,1.0,0.325611425781,-1.26892687988,8.90164177246,1.0,0.0,0.0,0.0,1.0,0.0,0.0,0.0,1.0
1481561749725514387,601,1481561749723739968,,10.8033800125,-9.35810756683,-152.266296387,0.00101899995934,1.0,0.0,0.0,0.0,1.0,0.0,0.0,0.0,1.0,-4.75609779358,28.7804889679,6.64634132385,1.0,0.0,0.0,0.0,1.0,0.0,0.0,0.0,1.0,0.248996972656,-0.545877978516,10.0508585693,1.0,0.0,0.0,0.0,1.0,0.0,0.0,0.0,1.0
1481561749738434226,602,1481561749734642472,,11.0385007858,-9.36913967133,-152.263381958,0.00105700001586,1.0,0.0,0.0,0.0,1.0,0.0,0.0,0.0,1.0,-7.86585378647,28.4146347046,-0.304878056049,1.0,0.0,0.0,0.0,1.0,0.0,0.0,0.0,1.0,-1.25456166992,-0.148440512063,10.5296989014,1.0,0.0,0.0,0.0,1.0,0.0,0.0,0.0,1.0
1481561749747925173,603,1481561749744884249,,11.316827774,-9.38659572601,-152.289001465,0.00100399996154,1.0,0.0,0.0,0.0,1.0,0.0,0.0,0.0,1.0,-10.6097564697,26.6463432312,-1.2804877758,1.0,0.0,0.0,0.0,1.0,0.0,0.0,0.0,1.0,-2.83952316895,0.45489831543,10.3190091553,1.0,0.0,0.0,0.0,1.0,0.0,0.0,0.0,1.0
1481561749759181477,604,1481561749755924721,,11.6507349014,-9.44601917267,-152.321655273,0.00112000002991,1.0,0.0,0.0,0.0,1.0,0.0,0.0,0.0,1.0,-11.7073173523,19.1463432312,-1.2804877758,1.0,0.0,0.0,0.0,1.0,0.0,0.0,0.0,1.0,-3.40934316406,0.186747729492,9.95030209961,1.0,0.0,0.0,0.0,1.0,0.0,0.0,0.0,1.0
1481561749768803309,605,1481561749766994203,,11.9485006332,-9.55610466003,-152.343978882,0.000976999988779,1.0,0.0,0.0,0.0,1.0,0.0,0.0,0.0,1.0,-9.75609779358,12.8048782349,-1.46341466904,1.0,0.0,0.0,0.0,1.0,0.0,0.0,0.0,1.0,-4.47236870117,-1.00556469727,9.67257470703,1.0,0.0,0.0,0.0,1.0,0.0,0.0,0.0,1.0
1481561749780466695,606,1481561749777095303,,12.1714115143,-9.66054058075,-152.386810303,0.00124400004279,1.0,0.0,0.0,0.0,1.0,0.0,0.0,0.0,1.0,-4.75609779358,6.34146356583,-3.10975623131,1.0,0.0,0.0,0.0,1.0,0.0,0.0,0.0,1.0,-4.38617744141,-1.67115275879,8.91600698242,1.0,0.0,0.0,0.0,1.0,0.0,0.0,0.0,1.0
1481561749790062017,607,1481561749787851245,,12.3570175171,-9.70127010345,-152.438842773,0.0012309999438,1.0,0.0,0.0,0.0,1.0,0.0,0.0,0.0,1.0,-1.15853655338,-6.28048801422,-6.95121955872,1.0,0.0,0.0,0.0,1.0,0.0,0.0,0.0,1.0,-4.35744702148,-1.58974990234,8.98304462891,1.0,0.0,0.0,0.0,1.0,0.0,0.0,0.0,1.0
1481561749800911604,608,1481561749798075783,,12.3699331284,-9.69858169556,-152.487792969,0.00122700002976,1.0,0.0,0.0,0.0,1.0,0.0,0.0,0.0,1.0,5.97560977936,-13.1707324982,-8.04878044128,1.0,0.0,0.0,0.0,1.0,0.0,0.0,0.0,1.0,-4.13239206543,-1.39821376953,8.77714328613,1.0,0.0,0.0,0.0,1.0,0.0,0.0,0.0,1.0
1481561749811304682,609,1481561749808849850,,12.2671432495,-9.63767814636,-152.521392822,0.000983000034466,1.0,0.0,0.0,0.0,1.0,0.0,0.0,0.0,1.0,6.58536624908,-17.1951217651,-7.25609779358,1.0,0.0,0.0,0.0,1.0,0.0,0.0,0.0,1.0,-3.11725056152,-1.39342536621,9.79707319336,1.0,0.0,0.0,0.0,1.0,0.0,0.0,0.0,1.0
1481561749821634636,610,1481561749819631416,,12.108206749,-9.53448867798,-152.533996582,0.00112899998203,1.0,0.0,0.0,0.0,1.0,0.0,0.0,0.0,1.0,8.35365867615,-21.341463089,-5.79268312454,1.0,0.0,0.0,0.0,1.0,0.0,0.0,0.0,1.0,-2.96402165527,-0.60812722168,10.3333743652,1.0,0.0,0.0,0.0,1.0,0.0,0.0,0.0,1.0
1481561749832221672,611,1481561749830414910,,11.8701620102,-9.4539270401,-152.532440186,0.000982000026852,1.0,0.0,0.0,0.0,1.0,0.0,0.0,0.0,1.0,5.54878091812,-19.6951236725,-3.84146332741,1.0,0.0,0.0,0.0,1.0,0.0,0.0,0.0,1.0,-2.04464821777,-1.0534486574,10.0891657959,1.0,0.0,0.0,0.0,1.0,0.0,0.0,0.0,1.0
1481561749842515377,612,1481561749840797988,,11.6300630569,-9.39883804321,-152.505111694,0.00109799997881,1.0,0.0,0.0,0.0,1.0,0.0,0.0,0.0,1.0,2.43902444839,-19.2682914734,-1.34146344662,1.0,0.0,0.0,0.0,1.0,0.0,0.0,0.0,1.0,-0.957680664062,-1.19710090314,10.5775829346,1.0,0.0,0.0,0.0,1.0,0.0,0.0,0.0,1.0
1481561749853588921,613,1481561749851724815,,11.3963699341,-9.36706542969,-152.456329346,0.00100499996915,1.0,0.0,0.0,0.0,1.0,0.0,0.0,0.0,1.0,0.426829278469,-15.9146347046,0.975609779358,1.0,0.0,0.0,0.0,1.0,0.0,0.0,0.0,1.0,-1.33117612305,-0.948103857422,10.0317049561,1.0,0.0,0.0,0.0,1.0,0.0,0.0,0.0,1.0
1481561749864110593,614,1481561749862092008,,11.1640291214,-9.36747074127,-152.388046265,0.00115100003313,1.0,0.0,0.0,0.0,1.0,0.0,0.0,0.0,1.0,-3.41463422775,-11.5853662491,4.93902444839,1.0,0.0,0.0,0.0,1.0,0.0,0.0,0.0,1.0,-0.335188232422,-1.46525141602,10.314220752,1.0,0.0,0.0,0.0,1.0,0.0,0.0,0.0,1.0
1481561749874991482,615,1481561749872926595,,11.0620279312,-9.40216445923,-152.335342407,0.00100699998438,1.0,0.0,0.0,0.0,1.0,0.0,0.0,0.0,1.0,-5.30487823486,-17.9878044128,-2.74390244484,1.0,0.0,0.0,0.0,1.0,0.0,0.0,0.0,1.0,-3.50032282715,-1.09654436035,9.95030209961,1.0,0.0,0.0,0.0,1.0,0.0,0.0,0.0,1.0
1481561749885542112,616,1481561749883698162,,10.950715065,-9.40500450134,-152.321289062,0.00110500003211,1.0,0.0,0.0,0.0,1.0,0.0,0.0,0.0,1.0,-1.46341466904,-25.975610733,-6.40243911743,1.0,0.0,0.0,0.0,1.0,0.0,0.0,0.0,1.0,-5.7508723877,-0.560243188477,9.06923588867,1.0,0.0,0.0,0.0,1.0,0.0,0.0,0.0,1.0
1481561749896798729,617,1481561749894416083,,10.7759304047,-9.36347389221,-152.307815552,0.001007999992,1.0,0.0,0.0,0.0,1.0,0.0,0.0,0.0,1.0,0.304878056049,-41.9512214661,-7.86585378647,1.0,0.0,0.0,0.0,1.0,0.0,0.0,0.0,1.0,-4.35744702148,-1.24498486328,9.65342167827,1.0,0.0,0.0,0.0,1.0,0.0,0.0,0.0,1.0
1481561749906840142,618,1481561749904624215,,10.4467897415,-9.28121376038,-152.267684937,0.00100699998438,1.0,0.0,0.0,0.0,1.0,0.0,0.0,0.0,1.0,2.56097555161,-49.0853652954,-4.32926845551,1.0,0.0,0.0,0.0,1.0,0.0,0.0,0.0,1.0,-3.62003291016,-0.296881024126,9.60553764507,1.0,0.0,0.0,0.0,1.0,0.0,0.0,0.0,1.0
1481561749917659834,619,1481561749915474583,,9.9861946106,-9.20804405212,-152.2006073,0.00109000003431,1.0,0.0,0.0,0.0,1.0,0.0,0.0,0.0,1.0,4.02439022064,-46.7682952881,-2.13414645195,1.0,0.0,0.0,0.0,1.0,0.0,0.0,0.0,1.0,-2.95444484863,-0.823605371094,9.75397756348,1.0,0.0,0.0,0.0,1.0,0.0,0.0,0.0,1.0
1481561749928048798,620,1481561749926261774,,9.48562908173,-9.14273834229,-152.099502563,0.00100199994631,1.0,0.0,0.0,0.0,1.0,0.0,0.0,0.0,1.0,-0.975609779358,-46.2195129395,3.71951246262,1.0,0.0,0.0,0.0,1.0,0.0,0.0,0.0,1.0,-1.31681091309,-0.938527050781,10.553640918,1.0,0.0,0.0,0.0,1.0,0.0,0.0,0.0,1.0
1481561749940042494,621,1481561749937377767,,8.90166378021,-9.1167049408,-151.945602417,0.00115499994718,1.0,0.0,0.0,0.0,1.0,0.0,0.0,0.0,1.0,-1.15853655338,-40.4268302917,7.98780536652,1.0,0.0,0.0,0.0,1.0,0.0,0.0,0.0,1.0,1.75255561523,-1.17794714373,10.0125513428,1.0,0.0,0.0,0.0,1.0,0.0,0.0,0.0,1.0
1481561749949791982,622,1481561749947719231,,8.39754104614,-9.09984779358,-151.784698486,0.00135999999475,1.0,0.0,0.0,0.0,1.0,0.0,0.0,0.0,1.0,0.0609756112099,-27.5609760284,9.26829242706,1.0,0.0,0.0,0.0,1.0,0.0,0.0,0.0,1.0,1.53707746582,-1.45088620605,9.7587659668,1.0,0.0,0.0,0.0,1.0,0.0,0.0,0.0,1.0
1481561749960843287,623,1481561749957990331,,7.99376153946,-9.07313919067,-151.631225586,0.00132000003941,1.0,0.0,0.0,0.0,1.0,0.0,0.0,0.0,1.0,0.975609779358,-18.841463089,10.8536586761,1.0,0.0,0.0,0.0,1.0,0.0,0.0,0.0,1.0,1.64721074219,-1.08217922346,9.93593688965,1.0,0.0,0.0,0.0,1.0,0.0,0.0,0.0,1.0
1481561749970913659,624,1481561749968777106,,7.61284255981,-9.03867435455,-151.465148926,0.000975999981165,1.0,0.0,0.0,0.0,1.0,0.0,0.0,0.0,1.0,-1.76829278469,-4.02439022064,15.4268302917,1.0,0.0,0.0,0.0,1.0,0.0,0.0,0.0,1.0,3.71101257324,-1.81001645508,10.3094323486,1.0,0.0,0.0,0.0,1.0,0.0,0.0,0.0,1.0
1481561749982628086,625,1481561749980130232,,7.42534923553,-9.02102661133,-151.312088013,0.00112499995157,1.0,0.0,0.0,0.0,1.0,0.0,0.0,0.0,1.0,-2.13414645195,9.69512176514,13.3536586761,1.0,0.0,0.0,0.0,1.0,0.0,0.0,0.0,1.0,2.77248552246,-0.871489404297,9.7827079834,1.0,0.0,0.0,0.0,1.0,0.0,0.0,0.0,1.0
1481561749992477781,626,1481561749990769977,,7.39590263367,-8.9978055954,-151.174026489,0.00107500003651,1.0,0.0,0.0,0.0,1.0,0.0,0.0,0.0,1.0,-3.71951246262,24.3292694092,13.5365858078,1.0,0.0,0.0,0.0,1.0,0.0,0.0,0.0,1.0,2.70544787598,-0.995987890625,9.98382092285,1.0,0.0,0.0,0.0,1.0,0.0,0.0,0.0,1.0
1481561750005689962,627,1481561750002682215,,7.53938913345,-8.89730358124,-151.034759521,0.00172199995723,1.0,0.0,0.0,0.0,1.0,0.0,0.0,0.0,1.0,-4.02439022064,37.317073822,11.4634151459,1.0,0.0,0.0,0.0,1.0,0.0,0.0,0.0,1.0,2.75333190918,1.50355864258,11.4730143555,1.0,0.0,0.0,0.0,1.0,0.0,0.0,0.0,1.0
1481561750014601120,628,1481561750012543838,,7.80946826935,-8.82606506348,-150.958328247,0.00103199994192,1.0,0.0,0.0,0.0,1.0,0.0,0.0,0.0,1.0,-3.23170733452,42.0121955872,11.7682924271,1.0,0.0,0.0,0.0,1.0,0.0,0.0,0.0,1.0,2.27449157715,2.15957004359,10.3190091553,1.0,0.0,0.0,0.0,1.0,0.0,0.0,0.0,1.0
1481561750025660759,629,1481561750023305196,,8.15392589569,-8.80903244019,-150.906921387,0.00119700003415,1.0,0.0,0.0,0.0,1.0,0.0,0.0,0.0,1.0,-8.65853691101,47.9268302917,7.86585378647,1.0,0.0,0.0,0.0,1.0,0.0,0.0,0.0,1.0,1.00077629395,-0.378283862305,9.56723041851,1.0,0.0,0.0,0.0,1.0,0.0,0.0,0.0,1.0
1481561750042908598,630,1481561750036181337,,8.5846452713,-8.84383869171,-150.925491333,0.00116300000809,1.0,0.0,0.0,0.0,1.0,0.0,0.0,0.0,1.0,-3.41463422775,46.1585388184,1.03658533096,1.0,0.0,0.0,0.0,1.0,0.0,0.0,0.0,1.0,-0.952892260742,-1.28329208984,9.7348239502,1.0,0.0,0.0,0.0,1.0,0.0,0.0,0.0,1.0
1481561750047029778,631,1481561750044581351,,9.01926136017,-8.90107345581,-151.031188965,0.00114399997983,1.0,0.0,0.0,0.0,1.0,0.0,0.0,0.0,1.0,-3.59756112099,36.8292694092,-10.4878053665,1.0,0.0,0.0,0.0,1.0,0.0,0.0,0.0,1.0,-3.4428619873,-0.895431420898,9.21288798828,1.0,0.0,0.0,0.0,1.0,0.0,0.0,0.0,1.0
1481561750059968783,632,1481561750056663277,,9.4629945755,-8.95925617218,-151.233459473,0.00110999995377,1.0,0.0,0.0,0.0,1.0,0.0,0.0,0.0,1.0,-2.98780488968,14.9390249252,-20.7317085266,1.0,0.0,0.0,0.0,1.0,0.0,0.0,0.0,1.0,-5.15232197266,-0.986411083984,10.3908352051,1.0,0.0,0.0,0.0,1.0,0.0,0.0,0.0,1.0
1481561750067904216,633,1481561750066072662,,9.75259494781,-9.01270771027,-151.47505188,0.00107899995055,1.0,0.0,0.0,0.0,1.0,0.0,0.0,0.0,1.0,-2.25609779358,-0.670731723309,-25.6097564697,1.0,0.0,0.0,0.0,1.0,0.0,0.0,0.0,1.0,-6.26323154297,-1.04387185076,9.27513723145,1.0,0.0,0.0,0.0,1.0,0.0,0.0,0.0,1.0
1481561750080883429,634,1481561750078892501,,9.88004112244,-9.03119564056,-151.710830688,0.00273100007325,1.0,0.0,0.0,0.0,1.0,0.0,0.0,0.0,1.0,-0.731707334518,-13.4756097794,-19.9390239716,1.0,0.0,0.0,0.0,1.0,0.0,0.0,0.0,1.0,-6.13394465332,-0.531512805087,10.2663367187,1.0,0.0,0.0,0.0,1.0,0.0,0.0,0.0,1.0
1481561750091348904,635,1481561750089292975,,9.82976913452,-9.03670120239,-151.836425781,0.0010379999876,1.0,0.0,0.0,0.0,1.0,0.0,0.0,0.0,1.0,0.0609756112099,-14.8780498505,-11.6463422775,1.0,0.0,0.0,0.0,1.0,0.0,0.0,0.0,1.0,-3.44765039062,-0.876277807617,10.658985791,1.0,0.0,0.0,0.0,1.0,0.0,0.0,0.0,1.0
1481561750102167866,636,1481561750100168135,,9.72469806671,-9.06381607056,-151.871948242,0.00115300004836,1.0,0.0,0.0,0.0,1.0,0.0,0.0,0.0,1.0,-0.0609756112099,-10.7317075729,-2.07317066193,1.0,0.0,0.0,0.0,1.0,0.0,0.0,0.0,1.0,-2.69108266602,-1.65199914551,10.405200415,1.0,0.0,0.0,0.0,1.0,0.0,0.0,0.0,1.0
1481561750112261102,637,1481561750110267153,,9.60748291016,-9.05710601807,-151.820739746,0.00104200001806,1.0,0.0,0.0,0.0,1.0,0.0,0.0,0.0,1.0,-3.17073178291,-0.731707334518,8.04878044128,1.0,0.0,0.0,0.0,1.0,0.0,0.0,0.0,1.0,-0.129286889648,-1.49398183594,11.2000753662,1.0,0.0,0.0,0.0,1.0,0.0,0.0,0.0,1.0
1481561750122554806,638,1481561750120467211,,9.53870677948,-9.1080904007,-151.716705322,0.00102800002787,1.0,0.0,0.0,0.0,1.0,0.0,0.0,0.0,1.0,-2.31707310677,7.07317113876,11.8902444839,1.0,0.0,0.0,0.0,1.0,0.0,0.0,0.0,1.0,2.16435844691,-1.68551796875,10.0173397461,1.0,0.0,0.0,0.0,1.0,0.0,0.0,0.0,1.0
1481561750133704652,639,1481561750131266903,,9.57596492767,-9.16049957275,-151.60609436,0.00104000000283,1.0,0.0,0.0,0.0,1.0,0.0,0.0,0.0,1.0,-5.67073154449,15.9146347046,9.93902492523,1.0,0.0,0.0,0.0,1.0,0.0,0.0,0.0,1.0,-0.0191536132812,-1.76213242187,9.04529387207,1.0,0.0,0.0,0.0,1.0,0.0,0.0,0.0,1.0
1481561750143697420,640,1481561750141954199,,9.63109111786,-9.2167673111,-151.531158447,0.00113600003533,1.0,0.0,0.0,0.0,1.0,0.0,0.0,0.0,1.0,-1.64634156227,17.6219520569,7.62195110321,1.0,0.0,0.0,0.0,1.0,0.0,0.0,0.0,1.0,1.50355864258,-1.4844050293,9.46188437642,1.0,0.0,0.0,0.0,1.0,0.0,0.0,0.0,1.0
1481561750154779090,641,1481561750152212643,,9.70144557953,-9.24820709229,-151.479110718,0.00104100001045,1.0,0.0,0.0,0.0,1.0,0.0,0.0,0.0,1.0,-1.34146344662,27.5609760284,8.29268264771,1.0,0.0,0.0,0.0,1.0,0.0,0.0,0.0,1.0,1.01514150391,-1.41257897949,9.96466730957,1.0,0.0,0.0,0.0,1.0,0.0,0.0,0.0,1.0
1481561750165074825,642,1481561750163293687,,9.88245487213,-9.21553134918,-151.429504395,0.00115599995479,1.0,0.0,0.0,0.0,1.0,0.0,0.0,0.0,1.0,-4.39024400711,36.4024391174,6.82926845551,1.0,0.0,0.0,0.0,1.0,0.0,0.0,0.0,1.0,1.03908344744,0.397437475586,10.5727945312,1.0,0.0,0.0,0.0,1.0,0.0,0.0,0.0,1.0
1481561750175205926,643,1481561750173544423,,10.1309890747,-9.20578670502,-151.419448853,0.00107700005174,1.0,0.0,0.0,0.0,1.0,0.0,0.0,0.0,1.0,-7.86585378647,47.6219520569,5.36585378647,1.0,0.0,0.0,0.0,1.0,0.0,0.0,0.0,1.0,0.943315454102,-0.148440512063,9.77791958008,1.0,0.0,0.0,0.0,1.0,0.0,0.0,0.0,1.0
1481561750185611713,644,1481561750184066043,,10.5415019989,-9.18671894073,-151.393478394,0.00109499995597,1.0,0.0,0.0,0.0,1.0,0.0,0.0,0.0,1.0,-10.4268293381,54.4512214661,9.45121955872,1.0,0.0,0.0,0.0,1.0,0.0,0.0,0.0,1.0,1.82438166504,0.316034619141,10.5153336914,1.0,0.0,0.0,0.0,1.0,0.0,0.0,0.0,1.0
1481561750198109782,645,1481561750195371721,,11.1003904343,-9.25382709503,-151.363174438,0.00119199999608,1.0,0.0,0.0,0.0,1.0,0.0,0.0,0.0,1.0,-14.9390249252,58.4146347046,5.24390268326,1.0,0.0,0.0,0.0,1.0,0.0,0.0,0.0,1.0,-1.79565124512,0.205901342773,10.9415015869,1.0,0.0,0.0,0.0,1.0,0.0,0.0,0.0,1.0
1481561750208533173,646,1481561750206219746,,11.7045946121,-9.39799880981,-151.409301758,0.00102900003549,1.0,0.0,0.0,0.0,1.0,0.0,0.0,0.0,1.0,-23.5365848541,52.317073822,0.609756112099,1.0,0.0,0.0,0.0,1.0,0.0,0.0,0.0,1.0,-3.44765039062,-0.0861912597656,10.2376062988,1.0,0.0,0.0,0.0,1.0,0.0,0.0,0.0,1.0
1481561750219761665,647,1481561750217926465,,12.2815990448,-9.62461853027,-151.474243164,0.0011569999624,1.0,0.0,0.0,0.0,1.0,0.0,0.0,0.0,1.0,-18.4146347046,46.8902435303,3.10975623131,1.0,0.0,0.0,0.0,1.0,0.0,0.0,0.0,1.0,-3.89297189941,-0.512359155273,7.2831614502,1.0,0.0,0.0,0.0,1.0,0.0,0.0,0.0,1.0
1481561750229490788,648,1481561750227096528,,12.8944807053,-9.79755210876,-151.526824951,0.00101200002246,1.0,0.0,0.0,0.0,1.0,0.0,0.0,0.0,1.0,-16.0365848541,37.3780517578,-1.76829278469,1.0,0.0,0.0,0.0,1.0,0.0,0.0,0.0,1.0,-5.46356818848,-1.10133276367,8.41322404927,1.0,0.0,0.0,0.0,1.0,0.0,0.0,0.0,1.0
1481561750240261521,649,1481561750237928355,,13.4317541122,-9.96630764008,-151.615036011,0.00266700005159,1.0,0.0,0.0,0.0,1.0,0.0,0.0,0.0,1.0,-12.4390249252,17.9878044128,-6.28048801422,1.0,0.0,0.0,0.0,1.0,0.0,0.0,0.0,1.0,-6.60320817871,-1.39342536621,9.25119521484,1.0,0.0,0.0,0.0,1.0,0.0,0.0,0.0,1.0
1481561750251305639,650,1481561750248797317,,13.7794876099,-10.0900878906,-151.718902588,0.00108099996578,1.0,0.0,0.0,0.0,1.0,0.0,0.0,0.0,1.0,-5.60975599289,-3.10975623131,-12.9878053665,1.0,0.0,0.0,0.0,1.0,0.0,0.0,0.0,1.0,-8.36055161274,-1.2737152832,8.0397291748,1.0,0.0,0.0,0.0,1.0,0.0,0.0,0.0,1.0
1481561750261619343,651,1481561750259504821,,13.8887672424,-10.1350154877,-151.852935791,0.001111999969,1.0,0.0,0.0,0.0,1.0,0.0,0.0,0.0,1.0,2.62195134163,-21.9512195587,-17.9878044128,1.0,0.0,0.0,0.0,1.0,0.0,0.0,0.0,1.0,-6.94797321777,-0.890643017578,8.68137521973,1.0,0.0,0.0,0.0,1.0,0.0,0.0,0.0,1.0
1481561750272602315,652,1481561750270483158,,13.7240905762,-10.0869598389,-151.962677002,0.00102500000503,1.0,0.0,0.0,0.0,1.0,0.0,0.0,0.0,1.0,10.548781395,-18.475610733,-11.2804880142,1.0,0.0,0.0,0.0,1.0,0.0,0.0,0.0,1.0,-2.55221896973,-1.63763393555,9.08360109863,1.0,0.0,0.0,0.0,1.0,0.0,0.0,0.0,1.0
1481561750283871640,653,1481561750281700243,,13.5228490829,-9.94582366943,-151.989273071,0.00107999995816,1.0,0.0,0.0,0.0,1.0,0.0,0.0,0.0,1.0,14.8780498505,-12.7439022064,-3.84146332741,1.0,0.0,0.0,0.0,1.0,0.0,0.0,0.0,1.0,0.31124621582,-1.67594116211,10.0125513428,1.0,0.0,0.0,0.0,1.0,0.0,0.0,0.0,1.0
1481561750297136737,654,1481561750294827893,,13.2428417206,-9.78727817535,-151.962738037,0.00313200009987,1.0,0.0,0.0,0.0,1.0,0.0,0.0,0.0,1.0,10.1219511032,9.93902492523,1.2804877758,1.0,0.0,0.0,0.0,1.0,0.0,0.0,0.0,1.0,2.40377861293,-1.75734401855,10.3956236084,1.0,0.0,0.0,0.0,1.0,0.0,0.0,0.0,1.0
1481561750306977058,655,1481561750305608626,,13.2291812897,-9.71228790283,-151.907684326,0.0010969999712,1.0,0.0,0.0,0.0,1.0,0.0,0.0,0.0,1.0,3.59756112099,22.682926178,4.57317066193,1.0,0.0,0.0,0.0,1.0,0.0,0.0,0.0,1.0,0.268150604204,-1.57538469238,10.5153336914,1.0,0.0,0.0,0.0,1.0,0.0,0.0,0.0,1.0
1481561750319907833,656,1481561750318834453,,13.3649978638,-9.77543735504,-151.903701782,0.00433999998495,1.0,0.0,0.0,0.0,1.0,0.0,0.0,0.0,1.0,-6.52439069748,13.9024391174,-1.46341466904,1.0,0.0,0.0,0.0,1.0,0.0,0.0,0.0,1.0,-0.837970581055,-1.5322890625,10.6925046143,1.0,0.0,0.0,0.0,1.0,0.0,0.0,0.0,1.0
1481561750330817472,657,1481561750329284041,,13.5331039429,-9.89110183716,-151.938903809,0.00119600002654,1.0,0.0,0.0,0.0,1.0,0.0,0.0,0.0,1.0,-15.6707315445,11.7073173523,-4.75609779358,1.0,0.0,0.0,0.0,1.0,0.0,0.0,0.0,1.0,-4.903325,-1.17315874041,9.97903251953,1.0,0.0,0.0,0.0,1.0,0.0,0.0,0.0,1.0
1481561750343529030,658,1481561750340695136,,13.7377614975,-10.0261259079,-151.974319458,0.00245200004429,1.0,0.0,0.0,0.0,1.0,0.0,0.0,0.0,1.0,-13.9634151459,5.06097555161,-3.65853667259,1.0,0.0,0.0,0.0,1.0,0.0,0.0,0.0,1.0,-5.32470449219,-0.316034619141,9.00698664551,1.0,0.0,0.0,0.0,1.0,0.0,0.0,0.0,1.0
1481561750354012838,659,1481561750350797175,,13.8662414551,-10.0952043533,-151.942092896,0.00104999996256,1.0,0.0,0.0,0.0,1.0,0.0,0.0,0.0,1.0,-11.341463089,6.46341466904,5.42682933807,1.0,0.0,0.0,0.0,1.0,0.0,0.0,0.0,1.0,-3.3231519043,-0.435744702148,9.84974562988,1.0,0.0,0.0,0.0,1.0,0.0,0.0,0.0,1.0
1481561750364433572,660,1481561750361619991,,13.9922113419,-10.121090889,-151.826782227,0.00106699997559,1.0,0.0,0.0,0.0,1.0,0.0,0.0,0.0,1.0,-7.92682981491,12.2560977936,11.6463422775,1.0,0.0,0.0,0.0,1.0,0.0,0.0,0.0,1.0,-1.72382519531,-1.1540052002,9.09796630859,1.0,0.0,0.0,0.0,1.0,0.0,0.0,0.0,1.0
1481561750379764858,661,1481561750376128677,,14.0660943985,-10.1008625031,-151.679138184,0.0011269999668,1.0,0.0,0.0,0.0,1.0,0.0,0.0,0.0,1.0,-3.71951246262,23.5975627899,15.6707315445,1.0,0.0,0.0,0.0,1.0,0.0,0.0,0.0,1.0,-0.0191536132812,-1.43652099609,10.3956236084,1.0,0.0,0.0,0.0,1.0,0.0,0.0,0.0,1.0
1481561750384429369,662,1481561750382376201,,14.1675481796,-10.0487012863,-151.544769287,0.00111299997661,1.0,0.0,0.0,0.0,1.0,0.0,0.0,0.0,1.0,-1.52439022064,28.5975608826,14.6951217651,1.0,0.0,0.0,0.0,1.0,0.0,0.0,0.0,1.0,0.46447512207,-0.220266552734,9.41878874653,1.0,0.0,0.0,0.0,1.0,0.0,0.0,0.0,1.0
1481561750400458360,663,1481561750397055146,,14.4562358856,-10.0407123566,-151.478744507,0.00359899993055,1.0,0.0,0.0,0.0,1.0,0.0,0.0,0.0,1.0,-6.64634132385,14.5121955872,-0.12195122242,1.0,0.0,0.0,0.0,1.0,0.0,0.0,0.0,1.0,-3.064578125,-0.732625708008,10.060435376,1.0,0.0,0.0,0.0,1.0,0.0,0.0,0.0,1.0
1481561750408259210,664,1481561750405729326,,14.6086864471,-10.1252603531,-151.530044556,0.00114099995699,1.0,0.0,0.0,0.0,1.0,0.0,0.0,0.0,1.0,-7.68292665482,9.63414573669,-7.25609779358,1.0,0.0,0.0,0.0,1.0,0.0,0.0,0.0,1.0,-4.18506420969,-1.32638771973,9.38048151997,1.0,0.0,0.0,0.0,1.0,0.0,0.0,0.0,1.0
1481561750420368167,665,1481561750417619117,,14.8058576584,-10.2425556183,-151.64201355,0.00261300010607,1.0,0.0,0.0,0.0,1.0,0.0,0.0,0.0,1.0,-4.32926845551,-3.7804877758,-10.8536586761,1.0,0.0,0.0,0.0,1.0,0.0,0.0,0.0,1.0,-5.69819995117,-1.69509477539,9.00698664551,1.0,0.0,0.0,0.0,1.0,0.0,0.0,0.0,1.0
1481561750430405414,666,1481561750427966310,,14.8538713455,-10.2859401703,-151.723922729,0.00142200000118,1.0,0.0,0.0,0.0,1.0,0.0,0.0,0.0,1.0,1.2804877758,-9.69512176514,-9.5731716156,1.0,0.0,0.0,0.0,1.0,0.0,0.0,0.0,1.0,-5.41568415527,-1.42694418945,9.18894597168,1.0,0.0,0.0,0.0,1.0,0.0,0.0,0.0,1.0
1481561750440547504,667,1481561750438383035,,14.8110256195,-10.2602138519,-151.715560913,0.00122900004499,1.0,0.0,0.0,0.0,1.0,0.0,0.0,0.0,1.0,4.32926845551,-0.853658556938,2.19512200356,1.0,0.0,0.0,0.0,1.0,0.0,0.0,0.0,1.0,-2.56179577637,-1.70945998535,10.0508585693,1.0,0.0,0.0,0.0,1.0,0.0,0.0,0.0,1.0
1481561750451444956,668,1481561750448954706,,14.7371883392,-10.1533479691,-151.632049561,0.00106599996798,1.0,0.0,0.0,0.0,1.0,0.0,0.0,0.0,1.0,4.2682929039,9.39024448395,10.4878053665,1.0,0.0,0.0,0.0,1.0,0.0,0.0,0.0,1.0,1.48919343262,-1.02471831055,10.1178962158,1.0,0.0,0.0,0.0,1.0,0.0,0.0,0.0,1.0
1481561750463868754,669,1481561750460054240,,14.7161808014,-10.0797805786,-151.534469604,0.0012379999971,1.0,0.0,0.0,0.0,1.0,0.0,0.0,0.0,1.0,-0.853658556938,19.9390239716,10.8536586761,1.0,0.0,0.0,0.0,1.0,0.0,0.0,0.0,1.0,1.79565124512,-1.11090957031,11.1330377197,1.0,0.0,0.0,0.0,1.0,0.0,0.0,0.0,1.0
1481561750472844600,670,1481561750470186122,,14.8083534241,-10.0747594833,-151.421188354,0.00104700005613,1.0,0.0,0.0,0.0,1.0,0.0,0.0,0.0,1.0,-10.1219511032,33.5365867615,12.8658542633,1.0,0.0,0.0,0.0,1.0,0.0,0.0,0.0,1.0,1.23540805664,-0.794874951172,11.4634375488,1.0,0.0,0.0,0.0,1.0,0.0,0.0,0.0,1.0
1481561750483659968,671,1481561750481218990,,15.1090307236,-10.1737632751,-151.335540771,0.00105800002348,1.0,0.0,0.0,0.0,1.0,0.0,0.0,0.0,1.0,-14.5121955872,41.9512214661,13.1707324982,1.0,0.0,0.0,0.0,1.0,0.0,0.0,0.0,1.0,0.301669427446,-0.933738647461,10.1418382324,1.0,0.0,0.0,0.0,1.0,0.0,0.0,0.0,1.0
1481561750499977864,672,1481561750496661838,,15.6457576752,-10.3691072464,-151.244766235,0.0034769999329,1.0,0.0,0.0,0.0,1.0,0.0,0.0,0.0,1.0,-20.7317085266,45.6097564697,11.4024391174,1.0,0.0,0.0,0.0,1.0,0.0,0.0,0.0,1.0,-2.56658417969,-1.00077629395,9.66778688823,1.0,0.0,0.0,0.0,1.0,0.0,0.0,0.0,1.0
1481561750508898606,673,1481561750506308097,,16.157409668,-10.577044487,-151.192123413,0.00102800002787,1.0,0.0,0.0,0.0,1.0,0.0,0.0,0.0,1.0,-19.5121955872,43.7804870605,11.2195119858,1.0,0.0,0.0,0.0,1.0,0.0,0.0,0.0,1.0,-3.85466467285,-1.45088620605,9.16500395508,1.0,0.0,0.0,0.0,1.0,0.0,0.0,0.0,1.0
1481561750520877042,674,1481561750518187940,,16.7644348145,-10.76258564,-151.148864746,0.00278400001116,1.0,0.0,0.0,0.0,1.0,0.0,0.0,0.0,1.0,-15.7317075729,32.9878044128,7.62195110321,1.0,0.0,0.0,0.0,1.0,0.0,0.0,0.0,1.0,-4.96557424316,-1.30244570312,9.13148513184,1.0,0.0,0.0,0.0,1.0,0.0,0.0,0.0,1.0
1481561750531701473,675,1481561750528334144,,17.1933345795,-10.8706254959,-151.112319946,0.00103599997237,1.0,0.0,0.0,0.0,1.0,0.0,0.0,0.0,1.0,-10.0609760284,24.4512195587,6.15853643417,1.0,0.0,0.0,0.0,1.0,0.0,0.0,0.0,1.0,-4.93684382324,-0.780509741211,8.60954975444,1.0,0.0,0.0,0.0,1.0,0.0,0.0,0.0,1.0
1481561750541749345,676,1481561750538919826,,17.5075874329,-10.9038686752,-151.065719604,0.0066320002079,1.0,0.0,0.0,0.0,1.0,0.0,0.0,0.0,1.0,-5.42682933807,21.0975627899,6.89024400711,1.0,0.0,0.0,0.0,1.0,0.0,0.0,0.0,1.0,-3.83551105957,-0.928950244141,8.64306857769,1.0,0.0,0.0,0.0,1.0,0.0,0.0,0.0,1.0
1481561750552758931,677,1481561750549825090,,17.8226051331,-10.8615207672,-151.040130615,0.00111299997661,1.0,0.0,0.0,0.0,1.0,0.0,0.0,0.0,1.0,-1.46341466904,6.7682929039,-1.09756100178,1.0,0.0,0.0,0.0,1.0,0.0,0.0,0.0,1.0,-4.86501777344,-0.411802685547,9.35175110005,1.0,0.0,0.0,0.0,1.0,0.0,0.0,0.0,1.0
1481561750563255551,678,1481561750560290356,,17.9591331482,-10.8405380249,-151.083190918,0.00124400004279,1.0,0.0,0.0,0.0,1.0,0.0,0.0,0.0,1.0,2.01219511032,-4.45121955872,-7.13414621353,1.0,0.0,0.0,0.0,1.0,0.0,0.0,0.0,1.0,-6.22013591309,-0.517147558594,8.8154505127,1.0,0.0,0.0,0.0,1.0,0.0,0.0,0.0,1.0
1481561750577051063,679,1481561750570468905,,18.023809433,-10.8055496216,-151.119903564,0.00103599997237,1.0,0.0,0.0,0.0,1.0,0.0,0.0,0.0,1.0,4.63414621353,-17.2560977936,-9.20731735229,1.0,0.0,0.0,0.0,1.0,0.0,0.0,0.0,1.0,-7.76679018555,-0.948103857422,9.16500395508,1.0,0.0,0.0,0.0,1.0,0.0,0.0,0.0,1.0
1481561750583172285,680,1481561750580640161,,17.8948192596,-10.7535247803,-151.127578735,0.00113300001249,1.0,0.0,0.0,0.0,1.0,0.0,0.0,0.0,1.0,5.73170757294,-27.5,-7.74390268326,1.0,0.0,0.0,0.0,1.0,0.0,0.0,0.0,1.0,-6.82347473145,-1.82917006836,9.25598361816,1.0,0.0,0.0,0.0,1.0,0.0,0.0,0.0,1.0
1481561750595919416,681,1481561750590848710,,17.7090911865,-10.6855859756,-151.108947754,0.00114299997222,1.0,0.0,0.0,0.0,1.0,0.0,0.0,0.0,1.0,6.64634132385,-35.1829299927,-4.08536577225,1.0,0.0,0.0,0.0,1.0,0.0,0.0,0.0,1.0,-5.34385810547,-1.99197578125,9.61990285503,1.0,0.0,0.0,0.0,1.0,0.0,0.0,0.0,1.0
1481561750603754902,682,1481561750601569495,,17.3804645538,-10.5761146545,-151.032302856,0.00103699997999,1.0,0.0,0.0,0.0,1.0,0.0,0.0,0.0,1.0,7.98780536652,-36.5853652954,0.487804889679,1.0,0.0,0.0,0.0,1.0,0.0,0.0,0.0,1.0,-3.38061274414,-1.53707746582,9.13148513184,1.0,0.0,0.0,0.0,1.0,0.0,0.0,0.0,1.0
1481561750620046340,683,1481561750616166878,,16.9589290619,-10.4609584808,-150.922424316,0.00104300002567,1.0,0.0,0.0,0.0,1.0,0.0,0.0,0.0,1.0,6.64634132385,-29.8170719147,4.20731735229,1.0,0.0,0.0,0.0,1.0,0.0,0.0,0.0,1.0,-1.12527478027,-1.64721074219,9.68215151367,1.0,0.0,0.0,0.0,1.0,0.0,0.0,0.0,1.0
1481561750625048661,684,1481561750623233774,,16.5269355774,-10.3224391937,-150.771148682,0.00107700005174,1.0,0.0,0.0,0.0,1.0,0.0,0.0,0.0,1.0,4.39024400711,-23.5975627899,7.31707334518,1.0,0.0,0.0,0.0,1.0,0.0,0.0,0.0,1.0,-1.35990654297,-1.23540805664,10.5296989014,1.0,0.0,0.0,0.0,1.0,0.0,0.0,0.0,1.0
1481561750635670177,685,1481561750633920757,,16.208360672,-10.2107305527,-150.629516602,0.00149499997497,1.0,0.0,0.0,0.0,1.0,0.0,0.0,0.0,1.0,2.86585378647,-15.3658533096,7.43902492523,1.0,0.0,0.0,0.0,1.0,0.0,0.0,0.0,1.0,0.483628735352,-0.61770402832,9.96466730957,1.0,0.0,0.0,0.0,1.0,0.0,0.0,0.0,1.0
1481561750646160390,686,1481561750644116910,,15.9400978088,-10.1357145309,-150.484954834,0.00132100004703,1.0,0.0,0.0,0.0,1.0,0.0,0.0,0.0,1.0,0.731707334518,-2.98780488968,12.7439022064,1.0,0.0,0.0,0.0,1.0,0.0,0.0,0.0,1.0,2.02070620117,-0.177170922852,10.6350437744,1.0,0.0,0.0,0.0,1.0,0.0,0.0,0.0,1.0
1481561750662744900,687,1481561750659514966,,15.8424921036,-10.0839595795,-150.290374756,0.0027570000384,1.0,0.0,0.0,0.0,1.0,0.0,0.0,0.0,1.0,-5.0,13.5975618362,12.9268293381,1.0,0.0,0.0,0.0,1.0,0.0,0.0,0.0,1.0,0.0430956298828,-0.818816967773,9.70130512695,1.0,0.0,0.0,0.0,1.0,0.0,0.0,0.0,1.0
1481561750669909243,688,1481561750667827169,,15.8649196625,-10.069229126,-150.113372803,0.00152799999341,1.0,0.0,0.0,0.0,1.0,0.0,0.0,0.0,1.0,-9.51219558716,23.5365848541,16.9512195587,1.0,0.0,0.0,0.0,1.0,0.0,0.0,0.0,1.0,0.0957680664062,-1.2497732666,10.7499654541,1.0,0.0,0.0,0.0,1.0,0.0,0.0,0.0,1.0
1481561750680741382,689,1481561750678883786,,16.0631752014,-10.0951156616,-149.963348389,0.00131299998611,1.0,0.0,0.0,0.0,1.0,0.0,0.0,0.0,1.0,-7.74390268326,27.8048782349,14.2682924271,1.0,0.0,0.0,0.0,1.0,0.0,0.0,0.0,1.0,-0.837970581055,-0.785298144531,9.50976957866,1.0,0.0,0.0,0.0,1.0,0.0,0.0,0.0,1.0
1481561750691141232,690,1481561750689669103,,16.2979793549,-10.1483955383,-149.845977783,0.00120199995581,1.0,0.0,0.0,0.0,1.0,0.0,0.0,0.0,1.0,-10.2439022064,29.3902435303,12.2560977936,1.0,0.0,0.0,0.0,1.0,0.0,0.0,0.0,1.0,-1.92014973145,-0.785298144531,9.5432884019,1.0,0.0,0.0,0.0,1.0,0.0,0.0,0.0,1.0
1481561750701820559,691,1481561750700379680,,16.5684280396,-10.212597847,-149.787704468,0.00109599996358,1.0,0.0,0.0,0.0,1.0,0.0,0.0,0.0,1.0,-10.7317075729,25.1219520569,7.86585378647,1.0,0.0,0.0,0.0,1.0,0.0,0.0,0.0,1.0,-1.61848032227,-0.612915625,9.27034882812,1.0,0.0,0.0,0.0,1.0,0.0,0.0,0.0,1.0
1481561750713594048,692,1481561750711543953,,16.837392807,-10.2876424789,-149.73991394,0.00103499996476,1.0,0.0,0.0,0.0,1.0,0.0,0.0,0.0,1.0,-8.84146404266,25.2439041138,5.06097555161,1.0,0.0,0.0,0.0,1.0,0.0,0.0,0.0,1.0,-3.03105930176,-0.521935925381,9.34696269673,1.0,0.0,0.0,0.0,1.0,0.0,0.0,0.0,1.0
1481561750724352750,693,1481561750721783283,,17.0776615143,-10.3405952454,-149.703323364,0.00105700001586,1.0,0.0,0.0,0.0,1.0,0.0,0.0,0.0,1.0,-8.47560977936,24.0243911743,5.48780488968,1.0,0.0,0.0,0.0,1.0,0.0,0.0,0.0,1.0,-2.67192905273,-1.19231249982,9.64384487163,1.0,0.0,0.0,0.0,1.0,0.0,0.0,0.0,1.0
1481561750741129863,694,1481561750736991340,,17.4359073639,-10.4042081833,-149.669784546,0.00333099998534,1.0,0.0,0.0,0.0,1.0,0.0,0.0,0.0,1.0,-6.58536624908,21.2804889679,3.47560977936,1.0,0.0,0.0,0.0,1.0,0.0,0.0,0.0,1.0,-3.96958635254,-1.03908344744,9.15063874512,1.0,0.0,0.0,0.0,1.0,0.0,0.0,0.0,1.0
1481561750750203937,695,1481561750746123591,,17.6952533722,-10.4472646713,-149.651779175,0.00099400000181,1.0,0.0,0.0,0.0,1.0,0.0,0.0,0.0,1.0,-4.2682929039,21.7073173523,5.48780488968,1.0,0.0,0.0,0.0,1.0,0.0,0.0,0.0,1.0,-2.81079274902,-1.1875240965,9.76355437012,1.0,0.0,0.0,0.0,1.0,0.0,0.0,0.0,1.0
1481561750761572480,696,1481561750757928642,,17.9712047577,-10.4573774338,-149.606307983,0.00285800010897,1.0,0.0,0.0,0.0,1.0,0.0,0.0,0.0,1.0,-3.41463422775,25.7926845551,6.40243911743,1.0,0.0,0.0,0.0,1.0,0.0,0.0,0.0,1.0,-3.16513459473,-1.43173259277,8.71489404297,1.0,0.0,0.0,0.0,1.0,0.0,0.0,0.0,1.0
1481561750769911610,697,1481561750767983493,,18.2005004883,-10.4301290512,-149.539199829,0.00103599997237,1.0,0.0,0.0,0.0,1.0,0.0,0.0,0.0,1.0,-5.12195110321,32.5,9.93902492523,1.0,0.0,0.0,0.0,1.0,0.0,0.0,0.0,1.0,-1.44609780273,-1.25935007324,9.76355437012,1.0,0.0,0.0,0.0,1.0,0.0,0.0,0.0,1.0
1481561750782045150,698,1481561750779372089,,18.5257797241,-10.4324064255,-149.438766479,0.00124799995683,1.0,0.0,0.0,0.0,1.0,0.0,0.0,0.0,1.0,-7.19512224197,38.4756126404,13.7195129395,1.0,0.0,0.0,0.0,1.0,0.0,0.0,0.0,1.0,-1.96803376465,-0.943315454102,10.5201220947,1.0,0.0,0.0,0.0,1.0,0.0,0.0,0.0,1.0
1481561750793346505,699,1481561750790238238,,18.953086853,-10.4693546295,-149.352935791,0.00103299994953,1.0,0.0,0.0,0.0,1.0,0.0,0.0,0.0,1.0,-10.9146347046,33.6585388184,7.37804937363,1.0,0.0,0.0,0.0,1.0,0.0,0.0,0.0,1.0,-5.19541760254,-0.703895288086,9.34696269673,1.0,0.0,0.0,0.0,1.0,0.0,0.0,0.0,1.0
1481561750803938906,700,1481561750800923972,,19.3401908875,-10.5669641495,-149.324432373,0.00103399995714,1.0,0.0,0.0,0.0,1.0,0.0,0.0,0.0,1.0,-12.9268293381,21.2195129395,4.32926845551,1.0,0.0,0.0,0.0,1.0,0.0,0.0,0.0,1.0,-6.70376464844,-1.61369191895,9.86889924316,1.0,0.0,0.0,0.0,1.0,0.0,0.0,0.0,1.0
1481561750816835359,701,1481561750811805486,,19.6329593658,-10.6787099838,-149.316268921,0.000987999956124,1.0,0.0,0.0,0.0,1.0,0.0,0.0,0.0,1.0,-10.1219511032,9.08536529541,2.13414645195,1.0,0.0,0.0,0.0,1.0,0.0,0.0,0.0,1.0,-4.83149924246,-1.16358193377,8.8393925293,1.0,0.0,0.0,0.0,1.0,0.0,0.0,0.0,1.0
1481561750824616210,702,1481561750822196377,,19.8547000885,-10.7450704575,-149.302246094,0.00128900003619,1.0,0.0,0.0,0.0,1.0,0.0,0.0,0.0,1.0,-5.54878091812,1.09756100178,-0.18292683363,1.0,0.0,0.0,0.0,1.0,0.0,0.0,0.0,1.0,-4.76446159597,-0.699106884766,8.65743378765,1.0,0.0,0.0,0.0,1.0,0.0,0.0,0.0,1.0
1481561750838652189,703,1481561750833360025,,19.9154605865,-10.7267255783,-149.21144104,0.00110500003211,1.0,0.0,0.0,0.0,1.0,0.0,0.0,0.0,1.0,-2.80487799644,7.01219511032,7.92682981491,1.0,0.0,0.0,0.0,1.0,0.0,0.0,0.0,1.0,-2.81558115234,-0.943315454102,8.95431420898,1.0,0.0,0.0,0.0,1.0,0.0,0.0,0.0,1.0
1481561750846942360,704,1481561750843921228,,19.9408626556,-10.6136579514,-149.086334229,0.00100699998438,1.0,0.0,0.0,0.0,1.0,0.0,0.0,0.0,1.0,0.18292683363,15.6097564697,10.3658542633,1.0,0.0,0.0,0.0,1.0,0.0,0.0,0.0,1.0,-0.775721337891,-0.488417138672,9.04050546875,1.0,0.0,0.0,0.0,1.0,0.0,0.0,0.0,1.0
1481561750860397613,705,1481561750857296377,,20.0032615662,-10.5456943512,-148.955245972,0.00111499999184,1.0,0.0,0.0,0.0,1.0,0.0,0.0,0.0,1.0,0.731707334518,26.4634151459,11.4024391174,1.0,0.0,0.0,0.0,1.0,0.0,0.0,0.0,1.0,-1.66636435547,-1.66636435547,9.8305920166,1.0,0.0,0.0,0.0,1.0,0.0,0.0,0.0,1.0
1481561750867586696,706,1481561750865288841,,20.1643066406,-10.5073137283,-148.868621826,0.000980000011623,1.0,0.0,0.0,0.0,1.0,0.0,0.0,0.0,1.0,-2.43902444839,30.6707305908,12.3170728683,1.0,0.0,0.0,0.0,1.0,0.0,0.0,0.0,1.0,0.0383072265625,-1.27850368652,10.4626612549,1.0,0.0,0.0,0.0,1.0,0.0,0.0,0.0,1.0
1481561750880946480,707,1481561750878109461,,20.4950942993,-10.5601997375,-148.810028076,0.00303500005975,1.0,0.0,0.0,0.0,1.0,0.0,0.0,0.0,1.0,-7.56097555161,31.158536911,6.52439069748,1.0,0.0,0.0,0.0,1.0,0.0,0.0,0.0,1.0,-2.37025978969,-1.5322890625,9.31344387349,1.0,0.0,0.0,0.0,1.0,0.0,0.0,0.0,1.0
1481561750891233413,708,1481561750888797591,,20.8045520782,-10.6452255249,-148.779129028,0.00100100005511,1.0,0.0,0.0,0.0,1.0,0.0,0.0,0.0,1.0,-13.1097564697,31.7073192596,5.79268312454,1.0,0.0,0.0,0.0,1.0,0.0,0.0,0.0,1.0,-3.51947644043,-1.23540805664,9.55765361187,1.0,0.0,0.0,0.0,1.0,0.0,0.0,0.0,1.0
1481561750902313207,709,1481561750899084420,,21.120470047,-10.7412242889,-148.757537842,0.00117699999828,1.0,0.0,0.0,0.0,1.0,0.0,0.0,0.0,1.0,-13.2317075729,28.9634151459,5.30487823486,1.0,0.0,0.0,0.0,1.0,0.0,0.0,0.0,1.0,-3.55778366699,-1.5083470459,9.05487067871,1.0,0.0,0.0,0.0,1.0,0.0,0.0,0.0,1.0
1481561750911190720,710,1481561750909309530,,21.4661026001,-10.8515758514,-148.746963501,0.00105099997018,1.0,0.0,0.0,0.0,1.0,0.0,0.0,0.0,1.0,-12.0731716156,17.4390239716,1.76829278469,1.0,0.0,0.0,0.0,1.0,0.0,0.0,0.0,1.0,-5.97113894043,-0.876277807617,8.6239149644,1.0,0.0,0.0,0.0,1.0,0.0,0.0,0.0,1.0
1481561750921835204,711,1481561750919542922,,21.7459907532,-10.9701862335,-148.777572632,0.00126399996225,1.0,0.0,0.0,0.0,1.0,0.0,0.0,0.0,1.0,-9.08536529541,4.51219558716,-3.96341490746,1.0,0.0,0.0,0.0,1.0,0.0,0.0,0.0,1.0,-7.34541069336,-1.19231249982,8.48505126812,1.0,0.0,0.0,0.0,1.0,0.0,0.0,0.0,1.0
1481561750932657551,712,1481561750929622409,,21.9262180328,-11.04915905,-148.804977417,0.001007999992,1.0,0.0,0.0,0.0,1.0,0.0,0.0,0.0,1.0,-5.54878091812,-9.08536529541,-5.97560977936,1.0,0.0,0.0,0.0,1.0,0.0,0.0,0.0,1.0,-8.48505126812,-0.847547387695,7.90565388184,1.0,0.0,0.0,0.0,1.0,0.0,0.0,0.0,1.0
1481561750943346775,713,1481561750940716370,,21.9583530426,-11.0499324799,-148.795425415,0.00106200005393,1.0,0.0,0.0,0.0,1.0,0.0,0.0,0.0,1.0,-0.304878056049,-22.2560977936,-2.13414645195,1.0,0.0,0.0,0.0,1.0,0.0,0.0,0.0,1.0,-7.46990917969,-0.727837304687,8.61433815776,1.0,0.0,0.0,0.0,1.0,0.0,0.0,0.0,1.0
1481561750956276353,714,1481561750950915022,,21.8572349548,-10.9911775589,-148.725631714,0.00101200002246,1.0,0.0,0.0,0.0,1.0,0.0,0.0,0.0,1.0,3.90243911743,-27.0121955872,0.548780500889,1.0,0.0,0.0,0.0,1.0,0.0,0.0,0.0,1.0,-6.25844313965,-1.07739082014,8.95431420898,1.0,0.0,0.0,0.0,1.0,0.0,0.0,0.0,1.0
1481561750963875381,715,1481561750961357528,,21.6510009766,-10.9028310776,-148.635025024,0.00110999995377,1.0,0.0,0.0,0.0,1.0,0.0,0.0,0.0,1.0,5.73170757294,-30.2439022064,1.8902438879,1.0,0.0,0.0,0.0,1.0,0.0,0.0,0.0,1.0,-4.37660063477,-1.31202250977,9.43794235981,1.0,0.0,0.0,0.0,1.0,0.0,0.0,0.0,1.0
1481561750975539444,716,1481561750971490608,,21.3907985687,-10.8188772202,-148.552734375,0.00101999996696,1.0,0.0,0.0,0.0,1.0,0.0,0.0,0.0,1.0,8.47560977936,-33.6585388184,0.914634168148,1.0,0.0,0.0,0.0,1.0,0.0,0.0,0.0,1.0,-3.50989963379,-1.59453830566,8.98783303223,1.0,0.0,0.0,0.0,1.0,0.0,0.0,0.0,1.0
1481561750984414717,717,1481561750981698739,,20.9989776611,-10.6914491653,-148.444503784,0.00103399995714,1.0,0.0,0.0,0.0,1.0,0.0,0.0,0.0,1.0,10.3658542633,-30.5487804413,6.58536624908,1.0,0.0,0.0,0.0,1.0,0.0,0.0,0.0,1.0,-0.565031591797,-1.06302561017,9.93593688965,1.0,0.0,0.0,0.0,1.0,0.0,0.0,0.0,1.0
1481561750994314568,718,1481561750992703638,,20.6259326935,-10.5307779312,-148.27571106,0.001007999992,1.0,0.0,0.0,0.0,1.0,0.0,0.0,0.0,1.0,9.26829242706,-22.5609760284,7.25609779358,1.0,0.0,0.0,0.0,1.0,0.0,0.0,0.0,1.0,-1.64242233887,-0.962469067383,9.65342167827,1.0,0.0,0.0,0.0,1.0,0.0,0.0,0.0,1.0
1481561751006246026,719,1481561751002862916,,20.2940387726,-10.3616409302,-148.111953735,0.000989999971353,1.0,0.0,0.0,0.0,1.0,0.0,0.0,0.0,1.0,5.48780488968,-9.87804889679,10.6097564697,1.0,0.0,0.0,0.0,1.0,0.0,0.0,0.0,1.0,-0.124498486328,-1.02471831055,11.3054202393,1.0,0.0,0.0,0.0,1.0,0.0,0.0,0.0,1.0
1481561751018836230,720,1481561751013600628,,20.1094760895,-10.2661705017,-147.942825317,0.00105399999302,1.0,0.0,0.0,0.0,1.0,0.0,0.0,0.0,1.0,1.34146344662,1.76829278469,13.5975618362,1.0,0.0,0.0,0.0,1.0,0.0,0.0,0.0,1.0,-1.09654436035,-0.881066210937,10.1370498291,1.0,0.0,0.0,0.0,1.0,0.0,0.0,0.0,1.0
1481561751027312078,721,1481561751024357716,,20.0173301697,-10.1781225204,-147.780944824,0.000992999994196,1.0,0.0,0.0,0.0,1.0,0.0,0.0,0.0,1.0,-1.8902438879,8.04878044128,12.6829271317,1.0,0.0,0.0,0.0,1.0,0.0,0.0,0.0,1.0,-0.0143652099609,-0.713472094727,10.4099888184,1.0,0.0,0.0,0.0,1.0,0.0,0.0,0.0,1.0
1481561751036548391,722,1481561751034661576,,19.9809474945,-10.1286725998,-147.636627197,0.00108299998101,1.0,0.0,0.0,0.0,1.0,0.0,0.0,0.0,1.0,-5.54878091812,17.1951217651,13.5365858078,1.0,0.0,0.0,0.0,1.0,0.0,0.0,0.0,1.0,-0.210689746094,-0.689530078125,10.8026378906,1.0,0.0,0.0,0.0,1.0,0.0,0.0,0.0,1.0
1481561751049393542,723,1481561751045133300,,20.0526542664,-10.1095428467,-147.489822388,0.000987999956124,1.0,0.0,0.0,0.0,1.0,0.0,0.0,0.0,1.0,-8.29268264771,27.3780498505,14.2682924271,1.0,0.0,0.0,0.0,1.0,0.0,0.0,0.0,1.0,-0.416591088867,-0.746990917969,10.314220752,1.0,0.0,0.0,0.0,1.0,0.0,0.0,0.0,1.0
1481561751061821351,724,1481561751058214857,,20.3006572723,-10.1282310486,-147.318771362,0.0033579999581,1.0,0.0,0.0,0.0,1.0,0.0,0.0,0.0,1.0,-12.5,38.2926864624,16.5243911743,1.0,0.0,0.0,0.0,1.0,0.0,0.0,0.0,1.0,-0.421379492187,-0.450109912109,10.2711251221,1.0,0.0,0.0,0.0,1.0,0.0,0.0,0.0,1.0
1481561751071023341,725,1481561751068218875,,20.657617569,-10.1923532486,-147.2237854,0.0010529999854,1.0,0.0,0.0,0.0,1.0,0.0,0.0,0.0,1.0,-14.3902444839,33.5365867615,10.0,1.0,0.0,0.0,0.0,1.0,0.0,0.0,0.0,1.0,-2.94965644531,-0.632069238281,9.42357714985,1.0,0.0,0.0,0.0,1.0,0.0,0.0,0.0,1.0
1481561751080663715,726,1481561751078812213,,21.0003051758,-10.3120727539,-147.177337646,0.00151600001846,1.0,0.0,0.0,0.0,1.0,0.0,0.0,0.0,1.0,-16.5853652954,29.2682933807,5.42682933807,1.0,0.0,0.0,0.0,1.0,0.0,0.0,0.0,1.0,-4.9272670166,-0.986411083984,9.73003554687,1.0,0.0,0.0,0.0,1.0,0.0,0.0,0.0,1.0
1481561751091912311,727,1481561751089064459,,21.3874530792,-10.4790220261,-147.193908691,0.0010229999898,1.0,0.0,0.0,0.0,1.0,0.0,0.0,0.0,1.0,-14.3292694092,15.1829271317,-3.65853667259,1.0,0.0,0.0,0.0,1.0,0.0,0.0,0.0,1.0,-7.90565388184,-1.20188930646,7.43639035645,1.0,0.0,0.0,0.0,1.0,0.0,0.0,0.0,1.0
1481561751102070651,728,1481561751100231701,,21.6550827026,-10.623790741,-147.239898682,0.00113500002772,1.0,0.0,0.0,0.0,1.0,0.0,0.0,0.0,1.0,-8.04878044128,-0.18292683363,-5.12195110321,1.0,0.0,0.0,0.0,1.0,0.0,0.0,0.0,1.0,-6.85699355469,-1.80522805176,8.24084211426,1.0,0.0,0.0,0.0,1.0,0.0,0.0,0.0,1.0
1481561751113058987,729,1481561751110609936,,21.8018360138,-10.6877059937,-147.263534546,0.00102500000503,1.0,0.0,0.0,0.0,1.0,0.0,0.0,0.0,1.0,-0.914634168148,-5.48780488968,-2.13414645195,1.0,0.0,0.0,0.0,1.0,0.0,0.0,0.0,1.0,-5.33906970215,-0.986411083984,8.14507404785,1.0,0.0,0.0,0.0,1.0,0.0,0.0,0.0,1.0
1481561751122978266,730,1481561751120829578,,21.900932312,-10.626168251,-147.206985474,0.00108399998862,1.0,0.0,0.0,0.0,1.0,0.0,0.0,0.0,1.0,4.2682929039,-11.7682924271,2.07317066193,1.0,0.0,0.0,0.0,1.0,0.0,0.0,0.0,1.0,-7.01022246094,-0.167594116211,8.65743378765,1.0,0.0,0.0,0.0,1.0,0.0,0.0,0.0,1.0
1481561751134251497,731,1481561751131172396,,21.9067325592,-10.538520813,-147.114868164,0.00102500000503,1.0,0.0,0.0,0.0,1.0,0.0,0.0,0.0,1.0,3.84146332741,-18.658536911,3.17073178291,1.0,0.0,0.0,0.0,1.0,0.0,0.0,0.0,1.0,-6.85220515137,-1.4844050293,8.95431420898,1.0,0.0,0.0,0.0,1.0,0.0,0.0,0.0,1.0
1481561751143030625,732,1481561751141553965,,21.8525180817,-10.4491453171,-147.025497437,0.00107899995055,1.0,0.0,0.0,0.0,1.0,0.0,0.0,0.0,1.0,8.17073154449,-26.4634151459,-0.18292683363,1.0,0.0,0.0,0.0,1.0,0.0,0.0,0.0,1.0,-6.29196196289,-1.11090957031,8.17859287109,1.0,0.0,0.0,0.0,1.0,0.0,0.0,0.0,1.0
1481561751158354515,733,1481561751155627235,,21.5444011688,-10.3146352768,-146.875076294,0.001215999946,1.0,0.0,0.0,0.0,1.0,0.0,0.0,0.0,1.0,6.82926845551,-18.5975627899,11.4634151459,1.0,0.0,0.0,0.0,1.0,0.0,0.0,0.0,1.0,-1.93451494141,-2.07816689489,9.66778688823,1.0,0.0,0.0,0.0,1.0,0.0,0.0,0.0,1.0
1481561751163748189,734,1481561751162086269,,21.2107601166,-10.1282367706,-146.672241211,0.00139500002842,1.0,0.0,0.0,0.0,1.0,0.0,0.0,0.0,1.0,8.71951198578,-9.93902492523,14.5121955872,1.0,0.0,0.0,0.0,1.0,0.0,0.0,0.0,1.0,0.497993945312,-0.507570751953,9.61032604839,1.0,0.0,0.0,0.0,1.0,0.0,0.0,0.0,1.0
1481561751180506499,735,1481561751177995573,,21.067150116,-9.9464263916,-146.386795044,0.00586500018835,1.0,0.0,0.0,0.0,1.0,0.0,0.0,0.0,1.0,1.58536589146,15.7926826477,17.5000019073,1.0,0.0,0.0,0.0,1.0,0.0,0.0,0.0,1.0,-0.0478840332031,-1.07260241682,10.6637741943,1.0,0.0,0.0,0.0,1.0,0.0,0.0,0.0,1.0
1481561751190394945,736,1481561751188477141,,21.0855941772,-9.86854743958,-146.1978302,0.00110200000927,1.0,0.0,0.0,0.0,1.0,0.0,0.0,0.0,1.0,-5.36585378647,27.1341457367,17.4390239716,1.0,0.0,0.0,0.0,1.0,0.0,0.0,0.0,1.0,-0.622492431641,-0.938527050781,11.0276928467,1.0,0.0,0.0,0.0,1.0,0.0,0.0,0.0,1.0
1481561751201549062,737,1481561751199557717,,21.2967472076,-9.88064861298,-146.065582275,0.00119900004938,1.0,0.0,0.0,0.0,1.0,0.0,0.0,0.0,1.0,-11.4024391174,22.1951236725,10.0,1.0,0.0,0.0,0.0,1.0,0.0,0.0,0.0,1.0,-1.81959326172,-0.746990917969,10.7020814209,1.0,0.0,0.0,0.0,1.0,0.0,0.0,0.0,1.0
1481561751212233546,738,1481561751210106368,,21.4558372498,-9.96416854858,-145.972259521,0.00102700002026,1.0,0.0,0.0,0.0,1.0,0.0,0.0,0.0,1.0,-14.0243902206,22.8658542633,9.20731735229,1.0,0.0,0.0,0.0,1.0,0.0,0.0,0.0,1.0,-3.07415493164,-0.962469067383,9.77313117676,1.0,0.0,0.0,0.0,1.0,0.0,0.0,0.0,1.0
1481561751223644276,739,1481561751220938194,,21.6868495941,-10.067158699,-145.912338257,0.00100599997677,1.0,0.0,0.0,0.0,1.0,0.0,0.0,0.0,1.0,-17.0731716156,16.2804889679,3.90243911743,1.0,0.0,0.0,0.0,1.0,0.0,0.0,0.0,1.0,-3.77805021973,-0.579396801758,9.20809958496,1.0,0.0,0.0,0.0,1.0,0.0,0.0,0.0,1.0
1481561751240932480,740,1481561751236305730,,21.9059333801,-10.2208995819,-145.901779175,0.00103299994953,1.0,0.0,0.0,0.0,1.0,0.0,0.0,0.0,1.0,-13.2926826477,6.28048801422,-1.46341466904,1.0,0.0,0.0,0.0,1.0,0.0,0.0,0.0,1.0,-5.39174213867,-1.21146604004,8.16422766113,1.0,0.0,0.0,0.0,1.0,0.0,0.0,0.0,1.0
1481561751244444913,741,1481561751242902836,,22.0776634216,-10.3585205078,-145.906448364,0.0012009999482,1.0,0.0,0.0,0.0,1.0,0.0,0.0,0.0,1.0,-9.81707286835,0.853658556938,-1.8292683363,1.0,0.0,0.0,0.0,1.0,0.0,0.0,0.0,1.0,-5.69819995117,-1.27850368652,7.44117875977,1.0,0.0,0.0,0.0,1.0,0.0,0.0,0.0,1.0
1481561751261105567,742,1481561751256860795,,22.192697525,-10.4241981506,-145.926605225,0.00516600022092,1.0,0.0,0.0,0.0,1.0,0.0,0.0,0.0,1.0,0.243902444839,-12.1951217651,-5.24390268326,1.0,0.0,0.0,0.0,1.0,0.0,0.0,0.0,1.0,-5.70777675781,-0.900219824219,7.16823977051,1.0,0.0,0.0,0.0,1.0,0.0,0.0,0.0,1.0
1481561751269690633,743,1481561751267653090,,22.1704444885,-10.3801202774,-145.935516357,0.00118999998085,1.0,0.0,0.0,0.0,1.0,0.0,0.0,0.0,1.0,4.87804889679,-20.5487823486,-7.98780536652,1.0,0.0,0.0,0.0,1.0,0.0,0.0,0.0,1.0,-7.17302817383,-0.952892260742,8.43237766255,1.0,0.0,0.0,0.0,1.0,0.0,0.0,0.0,1.0
1481561751281537976,744,1481561751279495017,,22.0239925385,-10.3174934387,-145.984176636,0.00282700010575,1.0,0.0,0.0,0.0,1.0,0.0,0.0,0.0,1.0,8.90243911743,-36.2195129395,-12.0121955872,1.0,0.0,0.0,0.0,1.0,0.0,0.0,0.0,1.0,-9.88326445312,-1.2976572998,9.20809958496,1.0,0.0,0.0,0.0,1.0,0.0,0.0,0.0,1.0
1481561751292445480,745,1481561751290458614,,21.7412338257,-10.2034854889,-146.042800903,0.00101899995934,1.0,0.0,0.0,0.0,1.0,0.0,0.0,0.0,1.0,10.8536586761,-55.2439041138,-15.0609760284,1.0,0.0,0.0,0.0,1.0,0.0,0.0,0.0,1.0,-8.71010563965,-0.536301208408,9.23204160156,1.0,0.0,0.0,0.0,1.0,0.0,0.0,0.0,1.0
1481561751303820950,746,1481561751301240285,,21.203956604,-10.0826635361,-146.043273926,0.000979000004008,1.0,0.0,0.0,0.0,1.0,0.0,0.0,0.0,1.0,11.4024391174,-68.7804870605,-12.2560977936,1.0,0.0,0.0,0.0,1.0,0.0,0.0,0.0,1.0,-6.89530078125,-1.23540805664,9.88805285645,1.0,0.0,0.0,0.0,1.0,0.0,0.0,0.0,1.0
1481561751314479913,747,1481561751311532166,,20.5909881592,-9.93940448761,-145.976211548,0.000950000016019,1.0,0.0,0.0,0.0,1.0,0.0,0.0,0.0,1.0,12.5609760284,-68.2317047119,-3.65853667259,1.0,0.0,0.0,0.0,1.0,0.0,0.0,0.0,1.0,-4.10366164551,-0.828393774414,8.75320126953,1.0,0.0,0.0,0.0,1.0,0.0,0.0,0.0,1.0
1481561751324274088,748,1481561751322341180,,19.8172187805,-9.70597648621,-145.795837402,0.0011040000245,1.0,0.0,0.0,0.0,1.0,0.0,0.0,0.0,1.0,10.4268293381,-59.1463394165,5.97560977936,1.0,0.0,0.0,0.0,1.0,0.0,0.0,0.0,1.0,-1.00077629395,-0.517147558594,9.46188437642,1.0,0.0,0.0,0.0,1.0,0.0,0.0,0.0,1.0
1481561751337154500,749,1481561751333508162,,19.0473213196,-9.48678302765,-145.568572998,0.00112100003753,1.0,0.0,0.0,0.0,1.0,0.0,0.0,0.0,1.0,12.6219520569,-43.4756126404,11.1585359573,1.0,0.0,0.0,0.0,1.0,0.0,0.0,0.0,1.0,1.25935007324,-0.703895288086,10.0412817627,1.0,0.0,0.0,0.0,1.0,0.0,0.0,0.0,1.0
1481561751345183474,750,1481561751343625877,,18.5232429504,-9.2897939682,-145.337371826,0.00103899999522,1.0,0.0,0.0,0.0,1.0,0.0,0.0,0.0,1.0,9.08536529541,-33.9634132385,12.4390249252,1.0,0.0,0.0,0.0,1.0,0.0,0.0,0.0,1.0,-1.2497732666,-0.861912597656,10.1322614258,1.0,0.0,0.0,0.0,1.0,0.0,0.0,0.0,1.0
1481561751359345234,751,1481561751354600932,,18.0715198517,-9.14625835419,-145.149612427,0.00106200005393,1.0,0.0,0.0,0.0,1.0,0.0,0.0,0.0,1.0,2.74390244484,-47.3780517578,3.90243911743,1.0,0.0,0.0,0.0,1.0,0.0,0.0,0.0,1.0,-2.04464821777,-1.22583125,10.6829278076,1.0,0.0,0.0,0.0,1.0,0.0,0.0,0.0,1.0
1481561751367606708,752,1481561751364719116,,17.5370254517,-9.1193780899,-145.052642822,0.00100499996915,1.0,0.0,0.0,0.0,1.0,0.0,0.0,0.0,1.0,-1.58536589146,-48.0487823486,-4.39024400711,1.0,0.0,0.0,0.0,1.0,0.0,0.0,0.0,1.0,-3.84508786621,-1.01035310059,10.1753570557,1.0,0.0,0.0,0.0,1.0,0.0,0.0,0.0,1.0
1481561751379545665,753,1481561751375890421,,17.0171127319,-9.09336662292,-144.984634399,0.00115000002552,1.0,0.0,0.0,0.0,1.0,0.0,0.0,0.0,1.0,-2.43902444839,-52.1951255798,-4.51219558716,1.0,0.0,0.0,0.0,1.0,0.0,0.0,0.0,1.0,-3.3710359375,0.177170922852,8.98783303223,1.0,0.0,0.0,0.0,1.0,0.0,0.0,0.0,1.0
1481561751387470421,754,1481561751385670846,,16.4911308289,-9.11021709442,-144.965805054,0.00101699994411,1.0,0.0,0.0,0.0,1.0,0.0,0.0,0.0,1.0,-0.0609756112099,-54.207321167,-5.73170757294,1.0,0.0,0.0,0.0,1.0,0.0,0.0,0.0,1.0,-0.852335791016,-0.775721337891,9.21288798828,1.0,0.0,0.0,0.0,1.0,0.0,0.0,0.0,1.0
1481561751399465941,755,1481561751396932983,,15.9106016159,-9.06763362885,-144.903808594,0.00118899997324,1.0,0.0,0.0,0.0,1.0,0.0,0.0,0.0,1.0,5.12195110321,-47.9268302917,-1.15853655338,1.0,0.0,0.0,0.0,1.0,0.0,0.0,0.0,1.0,-1.6041151123,-1.69030637207,8.38449362935,1.0,0.0,0.0,0.0,1.0,0.0,0.0,0.0,1.0
1481561751410261466,756,1481561751407846841,,15.312037468,-8.94303607941,-144.80229187,0.00138499995228,1.0,0.0,0.0,0.0,1.0,0.0,0.0,0.0,1.0,10.9756097794,-41.3414649963,0.0,1.0,0.0,0.0,0.0,1.0,0.0,0.0,0.0,1.0,-0.0383072265625,-1.43173259277,9.37569311665,1.0,0.0,0.0,0.0,1.0,0.0,0.0,0.0,1.0
1481561751421769070,757,1481561751418246795,,14.8524827957,-8.80299568176,-144.704620361,0.001215999946,1.0,0.0,0.0,0.0,1.0,0.0,0.0,0.0,1.0,11.9512195587,-38.7195129395,-0.12195122242,1.0,0.0,0.0,0.0,1.0,0.0,0.0,0.0,1.0,-2.7820623291,-1.26892687988,9.81622680664,1.0,0.0,0.0,0.0,1.0,0.0,0.0,0.0,1.0
1481561751430882311,758,1481561751429072163,,14.3494625092,-8.63369274139,-144.622543335,0.000980000011623,1.0,0.0,0.0,0.0,1.0,0.0,0.0,0.0,1.0,9.87804889679,-36.3414611816,-1.70731711388,1.0,0.0,0.0,0.0,1.0,0.0,0.0,0.0,1.0,-1.47003981934,-0.622492431641,10.5632177246,1.0,0.0,0.0,0.0,1.0,0.0,0.0,0.0,1.0
1481561751441584347,759,1481561751439548731,,13.9357671738,-8.51976013184,-144.55696106,0.00114599999506,1.0,0.0,0.0,0.0,1.0,0.0,0.0,0.0,1.0,6.21951246262,-37.0121955872,0.792682945728,1.0,0.0,0.0,0.0,1.0,0.0,0.0,0.0,1.0,-1.12527478027,-0.670376464844,10.6206785645,1.0,0.0,0.0,0.0,1.0,0.0,0.0,0.0,1.0
1481561751452686277,760,1481561751449847904,,13.5457344055,-8.43127346039,-144.491195679,0.000992999994196,1.0,0.0,0.0,0.0,1.0,0.0,0.0,0.0,1.0,1.95121955872,-36.4634170532,-3.10975623131,1.0,0.0,0.0,0.0,1.0,0.0,0.0,0.0,1.0,-2.4756045166,-0.77093293457,10.0173397461,1.0,0.0,0.0,0.0,1.0,0.0,0.0,0.0,1.0
1481561751462843471,761,1481561751460653533,,13.1376810074,-8.37944221497,-144.450363159,0.00104600004852,1.0,0.0,0.0,0.0,1.0,0.0,0.0,0.0,1.0,-0.0609756112099,-38.7804870605,-6.40243911743,1.0,0.0,0.0,0.0,1.0,0.0,0.0,0.0,1.0,-3.35188232422,-0.574608398438,9.42357714985,1.0,0.0,0.0,0.0,1.0,0.0,0.0,0.0,1.0
1481561751473376132,762,1481561751471206402,,12.730966568,-8.35597515106,-144.443664551,0.000968999986071,1.0,0.0,0.0,0.0,1.0,0.0,0.0,0.0,1.0,0.731707334518,-41.7682952881,-6.95121955872,1.0,0.0,0.0,0.0,1.0,0.0,0.0,0.0,1.0,-3.07415493164,-0.603338854892,9.50498117534,1.0,0.0,0.0,0.0,1.0,0.0,0.0,0.0,1.0
1481561751483739263,763,1481561751481571096,,12.3449802399,-8.3121919632,-144.43132019,0.00102700002026,1.0,0.0,0.0,0.0,1.0,0.0,0.0,0.0,1.0,3.10975623131,-49.5121955872,-5.73170757294,1.0,0.0,0.0,0.0,1.0,0.0,0.0,0.0,1.0,-2.56658417969,-0.541089611728,8.92079538574,1.0,0.0,0.0,0.0,1.0,0.0,0.0,0.0,1.0
1481561751496772747,764,1481561751492374693,,11.8763027191,-8.22282028198,-144.396682739,0.00104400003329,1.0,0.0,0.0,0.0,1.0,0.0,0.0,0.0,1.0,6.09756088257,-53.7195129395,-7.01219511032,1.0,0.0,0.0,0.0,1.0,0.0,0.0,0.0,1.0,-3.42849677734,-0.493205541992,8.88248815918,1.0,0.0,0.0,0.0,1.0,0.0,0.0,0.0,1.0
1481561751504429692,765,1481561751502613971,,11.3842124939,-8.12443637848,-144.368041992,0.00104799994733,1.0,0.0,0.0,0.0,1.0,0.0,0.0,0.0,1.0,9.81707286835,-59.024394989,-7.25609779358,1.0,0.0,0.0,0.0,1.0,0.0,0.0,0.0,1.0,-3.97437475586,-0.76614453125,9.20331118164,1.0,0.0,0.0,0.0,1.0,0.0,0.0,0.0,1.0
1481561751518893638,766,1481561751513211424,,10.8750896454,-7.98099279404,-144.35585022,0.00103399995714,1.0,0.0,0.0,0.0,1.0,0.0,0.0,0.0,1.0,15.0609760284,-72.6219558716,-14.3292694092,1.0,0.0,0.0,0.0,1.0,0.0,0.0,0.0,1.0,-6.65588061523,-0.91458503418,8.94952580566,1.0,0.0,0.0,0.0,1.0,0.0,0.0,0.0,1.0
1481561751525573556,767,1481561751523415753,,10.2391138077,-7.80235767365,-144.392059326,0.00101200002246,1.0,0.0,0.0,0.0,1.0,0.0,0.0,0.0,1.0,17.1951217651,-91.7682952881,-17.4390239716,1.0,0.0,0.0,0.0,1.0,0.0,0.0,0.0,1.0,-5.92325490723,0.383072265625,8.08761320801,1.0,0.0,0.0,0.0,1.0,0.0,0.0,0.0,1.0
1481561751538150219,768,1481561751534302111,,9.34733581543,-7.56230258942,-144.428222656,0.00105199997779,1.0,0.0,0.0,0.0,1.0,0.0,0.0,0.0,1.0,10.6707315445,-99.4512252808,-12.5,1.0,0.0,0.0,0.0,1.0,0.0,0.0,0.0,1.0,-2.31758720703,0.723048901367,13.1824743408,1.0,0.0,0.0,0.0,1.0,0.0,0.0,0.0,1.0
1481561751547032419,769,1481561751544400816,,8.3514509201,-7.58432912827,-144.351089478,0.001007999992,1.0,0.0,0.0,0.0,1.0,0.0,0.0,0.0,1.0,-10.0609760284,-91.8292694092,-2.5,1.0,0.0,0.0,0.0,1.0,0.0,0.0,0.0,1.0,0.694318481445,-1.02471831055,10.3668931885,1.0,0.0,0.0,0.0,1.0,0.0,0.0,0.0,1.0
1481561751558583096,770,1481561751554804207,,7.34970617294,-7.63802623749,-144.206451416,0.00108700001147,1.0,0.0,0.0,0.0,1.0,0.0,0.0,0.0,1.0,-16.8292694092,-79.6951217651,5.60975599289,1.0,0.0,0.0,0.0,1.0,0.0,0.0,0.0,1.0,1.25935007324,-0.114921679688,8.79150849609,1.0,0.0,0.0,0.0,1.0,0.0,0.0,0.0,1.0
1481561751567311339,771,1481561751564808850,,6.38653039932,-7.77245855331,-144.010177612,0.000983000034466,1.0,0.0,0.0,0.0,1.0,0.0,0.0,0.0,1.0,-11.9512195587,-70.4268264771,8.96341514587,1.0,0.0,0.0,0.0,1.0,0.0,0.0,0.0,1.0,4.66390454172,-1.5801730957,9.2176763916,1.0,0.0,0.0,0.0,1.0,0.0,0.0,0.0,1.0
1481561751577316034,772,1481561751575937602,,5.4535112381,-7.84201431274,-143.771209717,0.00113700004295,1.0,0.0,0.0,0.0,1.0,0.0,0.0,0.0,1.0,2.62195134163,-45.8536605835,14.1463422775,1.0,0.0,0.0,0.0,1.0,0.0,0.0,0.0,1.0,3.78762702637,-0.976834277344,8.61433815776,1.0,0.0,0.0,0.0,1.0,0.0,0.0,0.0,1.0
1481561751590376444,773,1481561751587019324,,4.79540681839,-7.72690343857,-143.514465332,0.000972000008915,1.0,0.0,0.0,0.0,1.0,0.0,0.0,0.0,1.0,-0.426829278469,-37.6219520569,13.841463089,1.0,0.0,0.0,0.0,1.0,0.0,0.0,0.0,1.0,0.785298144531,0.426167895508,10.9606552002,1.0,0.0,0.0,0.0,1.0,0.0,0.0,0.0,1.0
1481561751601070928,774,1481561751597222039,,4.33573293686,-7.72197437286,-143.393005371,0.00125700002536,1.0,0.0,0.0,0.0,1.0,0.0,0.0,0.0,1.0,2.07317066193,-43.9634170532,-4.69512224197,1.0,0.0,0.0,0.0,1.0,0.0,0.0,0.0,1.0,-0.483628735352,-0.335188232422,11.0085392334,1.0,0.0,0.0,0.0,1.0,0.0,0.0,0.0,1.0
1481561751610257137,775,1481561751607984803,,3.89798641205,-7.69764041901,-143.443374634,0.00100100005511,1.0,0.0,0.0,0.0,1.0,0.0,0.0,0.0,1.0,-2.5,-57.6829299927,-15.6707315445,1.0,0.0,0.0,0.0,1.0,0.0,0.0,0.0,1.0,-3.71101257324,-0.536301208408,9.65821008159,1.0,0.0,0.0,0.0,1.0,0.0,0.0,0.0,1.0
1481561751622415677,776,1481561751619288816,,3.24468994141,-7.71485137939,-143.539367676,0.00108600000385,1.0,0.0,0.0,0.0,1.0,0.0,0.0,0.0,1.0,-3.96341490746,-68.4756164551,-22.2560977936,1.0,0.0,0.0,0.0,1.0,0.0,0.0,0.0,1.0,-2.66235224609,-0.392649072266,9.56244201519,1.0,0.0,0.0,0.0,1.0,0.0,0.0,0.0,1.0
1481561751632919276,777,1481561751629997466,,2.57195401192,-7.75237607956,-143.664535522,0.000988999963738,1.0,0.0,0.0,0.0,1.0,0.0,0.0,0.0,1.0,-4.69512224197,-78.3536605835,-22.3780498505,1.0,0.0,0.0,0.0,1.0,0.0,0.0,0.0,1.0,-4.05098920898,-0.948103857422,9.39005832661,1.0,0.0,0.0,0.0,1.0,0.0,0.0,0.0,1.0
1481561751643580114,778,1481561751640418565,,1.77215373516,-7.74791288376,-143.765106201,0.00108700001147,1.0,0.0,0.0,0.0,1.0,0.0,0.0,0.0,1.0,-2.25609779358,-78.7195129395,-15.4268302917,1.0,0.0,0.0,0.0,1.0,0.0,0.0,0.0,1.0,1.77649763184,0.0383072265625,10.8457335205,1.0,0.0,0.0,0.0,1.0,0.0,0.0,0.0,1.0
1481561751658237132,779,1481561751651319767,,0.897066414356,-7.77377414703,-143.693969727,0.00123299995903,1.0,0.0,0.0,0.0,1.0,0.0,0.0,0.0,1.0,-5.06097555161,-60.7317085266,-5.67073154449,1.0,0.0,0.0,0.0,1.0,0.0,0.0,0.0,1.0,-0.622492431641,-1.1875240965,9.12669672852,1.0,0.0,0.0,0.0,1.0,0.0,0.0,0.0,1.0
1481561751665985066,780,1481561751661734356,,0.182425692677,-7.78350257874,-143.581893921,0.00107300002128,1.0,0.0,0.0,0.0,1.0,0.0,0.0,0.0,1.0,-4.81707286835,-53.5365867615,3.47560977936,1.0,0.0,0.0,0.0,1.0,0.0,0.0,0.0,1.0,0.708683691406,-1.39821376953,9.25119521484,1.0,0.0,0.0,0.0,1.0,0.0,0.0,0.0,1.0
1481561751677094756,781,1481561751672103216,,-0.481259286404,-7.78314065933,-143.468200684,0.00104799994733,1.0,0.0,0.0,0.0,1.0,0.0,0.0,0.0,1.0,-4.45121955872,-52.3780517578,5.54878091812,1.0,0.0,0.0,0.0,1.0,0.0,0.0,0.0,1.0,3.88818349609,-0.632069238281,10.5201220947,1.0,0.0,0.0,0.0,1.0,0.0,0.0,0.0,1.0
1481561751684515035,782,1481561751682218431,,-1.11185932159,-7.81533765793,-143.322250366,0.00102900003549,1.0,0.0,0.0,0.0,1.0,0.0,0.0,0.0,1.0,-1.58536589146,-35.2439041138,7.01219511032,1.0,0.0,0.0,0.0,1.0,0.0,0.0,0.0,1.0,6.27759675293,-0.699106884766,10.2280294922,1.0,0.0,0.0,0.0,1.0,0.0,0.0,0.0,1.0
1481561751696063890,783,1481561751692923852,,-1.51536941528,-7.85603284836,-143.175262451,0.00101600005291,1.0,0.0,0.0,0.0,1.0,0.0,0.0,0.0,1.0,-2.43902444839,-23.658536911,12.7439022064,1.0,0.0,0.0,0.0,1.0,0.0,0.0,0.0,1.0,1.06781401349,-0.938527050781,8.80108530273,1.0,0.0,0.0,0.0,1.0,0.0,0.0,0.0,1.0
1481561751705595202,784,1481561751703241515,,-1.90319883823,-7.85716915131,-143.016082764,0.00100699998438,1.0,0.0,0.0,0.0,1.0,0.0,0.0,0.0,1.0,-1.58536589146,-18.2317085266,11.7682924271,1.0,0.0,0.0,0.0,1.0,0.0,0.0,0.0,1.0,5.37258852539,-1.57538469238,10.3812583984,1.0,0.0,0.0,0.0,1.0,0.0,0.0,0.0,1.0
1481561751716485570,785,1481561751713891623,,-2.15639710426,-7.88897371292,-142.859634399,0.00104400003329,1.0,0.0,0.0,0.0,1.0,0.0,0.0,0.0,1.0,2.43902444839,-5.42682933807,13.1707324982,1.0,0.0,0.0,0.0,1.0,0.0,0.0,0.0,1.0,3.42849677734,-1.12048637695,10.4099888184,1.0,0.0,0.0,0.0,1.0,0.0,0.0,0.0,1.0
1481561751726377297,786,1481561751724062620,,-2.33748197556,-7.87590360641,-142.702407837,0.000995000009425,1.0,0.0,0.0,0.0,1.0,0.0,0.0,0.0,1.0,-1.09756100178,4.57317066193,14.5731706619,1.0,0.0,0.0,0.0,1.0,0.0,0.0,0.0,1.0,5.2097828125,-0.900219824219,10.6494089844,1.0,0.0,0.0,0.0,1.0,0.0,0.0,0.0,1.0
1481561751737445945,787,1481561751734714760,,-2.41411089897,-7.88742303848,-142.570571899,0.0010890000267,1.0,0.0,0.0,0.0,1.0,0.0,0.0,0.0,1.0,-2.07317066193,20.3048782349,11.9512195587,1.0,0.0,0.0,0.0,1.0,0.0,0.0,0.0,1.0,5.26724365234,-1.1540052002,10.2280294922,1.0,0.0,0.0,0.0,1.0,0.0,0.0,0.0,1.0
1481561751748103502,788,1481561751745039505,,-2.32635331154,-7.92478609085,-142.468429565,0.00101999996696,1.0,0.0,0.0,0.0,1.0,0.0,0.0,0.0,1.0,-2.86585378647,24.2073173523,8.96341514587,1.0,0.0,0.0,0.0,1.0,0.0,0.0,0.0,1.0,2.57616098633,-1.67594116211,9.89284125977,1.0,0.0,0.0,0.0,1.0,0.0,0.0,0.0,1.0
1481561751758826475,789,1481561751756161695,,-2.113676548,-7.95696973801,-142.455841064,0.00113800005056,1.0,0.0,0.0,0.0,1.0,0.0,0.0,0.0,1.0,-2.19512200356,17.6219520569,-1.03658533096,1.0,0.0,0.0,0.0,1.0,0.0,0.0,0.0,1.0,-0.45489831543,-1.16837033709,9.52892319194,1.0,0.0,0.0,0.0,1.0,0.0,0.0,0.0,1.0
1481561751769965019,790,1481561751767038262,,-1.89546215534,-7.9758310318,-142.542785645,0.00100100005511,1.0,0.0,0.0,0.0,1.0,0.0,0.0,0.0,1.0,-4.08536577225,18.475610733,-16.8902435303,1.0,0.0,0.0,0.0,1.0,0.0,0.0,0.0,1.0,-4.13718046875,-2.41335541957,9.04050546875,1.0,0.0,0.0,0.0,1.0,0.0,0.0,0.0,1.0
1481561751778797115,791,1481561751777146342,,-1.67755615711,-8.01687526703,-142.723693848,0.0011490000179,1.0,0.0,0.0,0.0,1.0,0.0,0.0,0.0,1.0,-4.2682929039,0.12195122242,-18.5975627899,1.0,0.0,0.0,0.0,1.0,0.0,0.0,0.0,1.0,-3.17471140137,-1.00556469727,10.314220752,1.0,0.0,0.0,0.0,1.0,0.0,0.0,0.0,1.0
1481561751790382272,792,1481561751787793117,,-1.6399358511,-8.03869724274,-142.904037476,0.00105199997779,1.0,0.0,0.0,0.0,1.0,0.0,0.0,0.0,1.0,-5.60975599289,-3.47560977936,-12.6219520569,1.0,0.0,0.0,0.0,1.0,0.0,0.0,0.0,1.0,1.30244570312,-0.866701000977,9.68215151367,1.0,0.0,0.0,0.0,1.0,0.0,0.0,0.0,1.0
1481561751800796445,793,1481561751798335310,,-1.7028182745,-8.06409168243,-142.946212769,0.00155199994333,1.0,0.0,0.0,0.0,1.0,0.0,0.0,0.0,1.0,-7.31707334518,7.98780536652,1.8292683363,1.0,0.0,0.0,0.0,1.0,0.0,0.0,0.0,1.0,3.3470939209,-0.277727392578,10.3668931885,1.0,0.0,0.0,0.0,1.0,0.0,0.0,0.0,1.0
1481561751810484891,794,1481561751808896200,,-1.68384385109,-8.09087085724,-142.877365112,0.000977999996394,1.0,0.0,0.0,0.0,1.0,0.0,0.0,0.0,1.0,-4.08536577225,22.6219520569,11.8902444839,1.0,0.0,0.0,0.0,1.0,0.0,0.0,0.0,1.0,4.17069899973,-0.876277807617,9.44751916645,1.0,0.0,0.0,0.0,1.0,0.0,0.0,0.0,1.0
1481561751822029944,795,1481561751819159852,,-1.52410781384,-8.09151554108,-142.788101196,0.00112599995919,1.0,0.0,0.0,0.0,1.0,0.0,0.0,0.0,1.0,1.95121955872,33.2926826477,13.1707324982,1.0,0.0,0.0,0.0,1.0,0.0,0.0,0.0,1.0,0.785298144531,-0.641646044922,10.0700121826,1.0,0.0,0.0,0.0,1.0,0.0,0.0,0.0,1.0
