%time,field.header.seq,field.header.stamp,field.header.frame_id,field.orientation.x,field.orientation.y,field.orientation.z,field.orientation.w,field.orientation_covariance0,field.orientation_covariance1,field.orientation_covariance2,field.orientation_covariance3,field.orientation_covariance4,field.orientation_covariance5,field.orientation_covariance6,field.orientation_covariance7,field.orientation_covariance8,field.angular_velocity.x,field.angular_velocity.y,field.angular_velocity.z,field.angular_velocity_covariance0,field.angular_velocity_covariance1,field.angular_velocity_covariance2,field.angular_velocity_covariance3,field.angular_velocity_covariance4,field.angular_velocity_covariance5,field.angular_velocity_covariance6,field.angular_velocity_covariance7,field.angular_velocity_covariance8,field.linear_acceleration.x,field.linear_acceleration.y,field.linear_acceleration.z,field.linear_acceleration_covariance0,field.linear_acceleration_covariance1,field.linear_acceleration_covariance2,field.linear_acceleration_covariance3,field.linear_acceleration_covariance4,field.linear_acceleration_covariance5,field.linear_acceleration_covariance6,field.linear_acceleration_covariance7,field.linear_acceleration_covariance8
1479745220033605758,98,1479745219916580419,,-18.2379589081,-2.63195133209,-119.723869324,0.00492200022563,1.0,0.0,0.0,0.0,1.0,0.0,0.0,0.0,1.0,-2.19512200356,-7.19512224197,2.74390244484,1.0,0.0,0.0,0.0,1.0,0.0,0.0,0.0,1.0,1.07739082014,-0.46447512207,10.405200415,1.0,0.0,0.0,0.0,1.0,0.0,0.0,0.0,1.0
1479745220033645653,99,1479745219950942357,,-17.8056411743,-2.8610188961,-119.441253662,0.0012379999971,1.0,0.0,0.0,0.0,1.0,0.0,0.0,0.0,1.0,-1.40243899822,1.95121955872,5.36585378647,1.0,0.0,0.0,0.0,1.0,0.0,0.0,0.0,1.0,1.12048637695,-0.986411083984,9.83538041992,1.0,0.0,0.0,0.0,1.0,0.0,0.0,0.0,1.0
1479745220034667055,100,1479745219987325432,,-17.2662963867,-2.99146747589,-119.489433289,0.002431999892,1.0,0.0,0.0,0.0,1.0,0.0,0.0,0.0,1.0,-1.52439022064,-0.304878056049,0.792682945728,1.0,0.0,0.0,0.0,1.0,0.0,0.0,0.0,1.0,-0.407014282227,-0.344765039063,9.64863327495,1.0,0.0,0.0,0.0,1.0,0.0,0.0,0.0,1.0
1479745220035021429,101,1479745220022825074,,-16.6735725403,-3.17711734772,-119.338729858,0.0016609999584,1.0,0.0,0.0,0.0,1.0,0.0,0.0,0.0,1.0,-1.70731711388,-8.5365858078,4.51219558716,1.0,0.0,0.0,0.0,1.0,0.0,0.0,0.0,1.0,2.72938989258,-0.684741674805,10.1514150391,1.0,0.0,0.0,0.0,1.0,0.0,0.0,0.0,1.0
1479745220061882513,102,1479745220057606750,,-16.3838310242,-3.31310749054,-119.176132202,0.00104000000283,1.0,0.0,0.0,0.0,1.0,0.0,0.0,0.0,1.0,-1.15853655338,1.2195122242,2.19512200356,1.0,0.0,0.0,0.0,1.0,0.0,0.0,0.0,1.0,1.93930334473,-0.282515795898,9.96466730957,1.0,0.0,0.0,0.0,1.0,0.0,0.0,0.0,1.0
1479745220093480245,103,1479745220092389364,,-15.8775863647,-3.43742370605,-119.128349304,0.00127899996005,1.0,0.0,0.0,0.0,1.0,0.0,0.0,0.0,1.0,-0.914634168148,8.41463470459,1.46341466904,1.0,0.0,0.0,0.0,1.0,0.0,0.0,0.0,1.0,1.74297880859,-0.742202514648,10.3716815918,1.0,0.0,0.0,0.0,1.0,0.0,0.0,0.0,1.0
1479745220134494030,104,1479745220131281179,,-15.0098428726,-3.57647681236,-119.089729309,0.00349700008519,1.0,0.0,0.0,0.0,1.0,0.0,0.0,0.0,1.0,-2.01219511032,9.81707286835,-1.40243899822,1.0,0.0,0.0,0.0,1.0,0.0,0.0,0.0,1.0,-0.0239420166016,-0.45489831543,10.3525279785,1.0,0.0,0.0,0.0,1.0,0.0,0.0,0.0,1.0
1479745220165948116,105,1479745220164709735,,-14.2148113251,-3.66343092918,-119.104980469,0.00160900002811,1.0,0.0,0.0,0.0,1.0,0.0,0.0,0.0,1.0,-0.670731723309,10.7317075729,-1.64634156227,1.0,0.0,0.0,0.0,1.0,0.0,0.0,0.0,1.0,2.26012636719,0.0383072265625,10.5105452881,1.0,0.0,0.0,0.0,1.0,0.0,0.0,0.0,1.0
1479745220203264989,106,1479745220199274537,,-13.6047325134,-3.74777245522,-119.321144104,0.00120499997865,1.0,0.0,0.0,0.0,1.0,0.0,0.0,0.0,1.0,-3.47560977936,15.1829271317,-12.3780488968,1.0,0.0,0.0,0.0,1.0,0.0,0.0,0.0,1.0,1.43652099609,-0.517147558594,10.553640918,1.0,0.0,0.0,0.0,1.0,0.0,0.0,0.0,1.0
1479745220235051886,107,1479745220233791527,,-12.3065881729,-3.79489827156,-119.682693481,0.00121699995361,1.0,0.0,0.0,0.0,1.0,0.0,0.0,0.0,1.0,-3.17073178291,17.6219520569,0.365853667259,1.0,0.0,0.0,0.0,1.0,0.0,0.0,0.0,1.0,-3.00711728516,-0.469263525391,9.193734375,1.0,0.0,0.0,0.0,1.0,0.0,0.0,0.0,1.0
1479745220269771011,108,1479745220268915493,,-10.9365930557,-3.83435606956,-119.284858704,0.000975999981165,1.0,0.0,0.0,0.0,1.0,0.0,0.0,0.0,1.0,2.19512200356,11.5853662491,11.2804880142,1.0,0.0,0.0,0.0,1.0,0.0,0.0,0.0,1.0,-1.96803376465,-0.0335188255255,9.92157167969,1.0,0.0,0.0,0.0,1.0,0.0,0.0,0.0,1.0
1479745220305644661,109,1479745220303981439,,-10.3049106598,-3.72327923775,-119.155807495,0.00187399995048,1.0,0.0,0.0,0.0,1.0,0.0,0.0,0.0,1.0,8.96341514587,-3.53658556938,1.46341466904,1.0,0.0,0.0,0.0,1.0,0.0,0.0,0.0,1.0,-0.373495458984,-1.24019645996,9.44273076313,1.0,0.0,0.0,0.0,1.0,0.0,0.0,0.0,1.0
1479745220343081326,110,1479745220342232319,,-10.0325870514,-3.3782017231,-119.060142517,0.00279100006446,1.0,0.0,0.0,0.0,1.0,0.0,0.0,0.0,1.0,7.13414621353,-9.5731716156,-0.914634168148,1.0,0.0,0.0,0.0,1.0,0.0,0.0,0.0,1.0,0.785298144531,-0.91458503418,10.3285859619,1.0,0.0,0.0,0.0,1.0,0.0,0.0,0.0,1.0
1479745220377176963,111,1479745220375910979,,-10.0370826721,-3.47188234329,-119.075073242,0.00100899999961,1.0,0.0,0.0,0.0,1.0,0.0,0.0,0.0,1.0,-5.73170757294,-4.81707286835,-2.56097555161,1.0,0.0,0.0,0.0,1.0,0.0,0.0,0.0,1.0,0.76614453125,-0.665588061523,10.0412817627,1.0,0.0,0.0,0.0,1.0,0.0,0.0,0.0,1.0
1479745220411964160,112,1479745220410657655,,-9.7953081131,-3.7198381424,-119.172966003,0.000987999956124,1.0,0.0,0.0,0.0,1.0,0.0,0.0,0.0,1.0,-3.35365867615,-3.17073178291,-0.914634168148,1.0,0.0,0.0,0.0,1.0,0.0,0.0,0.0,1.0,-0.76135612793,-0.474051928711,10.0556469727,1.0,0.0,0.0,0.0,1.0,0.0,0.0,0.0,1.0
1479745220446593858,113,1479745220445410165,,-9.5394821167,-3.83152198792,-119.108863831,0.00105900003109,1.0,0.0,0.0,0.0,1.0,0.0,0.0,0.0,1.0,-3.17073178291,-5.60975599289,0.853658556938,1.0,0.0,0.0,0.0,1.0,0.0,0.0,0.0,1.0,0.162805712891,-0.263362164351,10.0987426025,1.0,0.0,0.0,0.0,1.0,0.0,0.0,0.0,1.0
1479745220483947658,114,1479745220482401675,,-9.42973518372,-3.92797756195,-118.99811554,0.00299599999562,1.0,0.0,0.0,0.0,1.0,0.0,0.0,0.0,1.0,-2.98780488968,-9.02439117432,5.73170757294,1.0,0.0,0.0,0.0,1.0,0.0,0.0,0.0,1.0,-0.646434448242,-0.282515795898,10.1514150391,1.0,0.0,0.0,0.0,1.0,0.0,0.0,0.0,1.0
1479745220518162358,115,1479745220516789915,,-9.3543548584,-4.06740951538,-118.757781982,0.00100100005511,1.0,0.0,0.0,0.0,1.0,0.0,0.0,0.0,1.0,-1.46341466904,-9.51219558716,1.03658533096,1.0,0.0,0.0,0.0,1.0,0.0,0.0,0.0,1.0,-0.397437475586,-0.320823022461,10.1178962158,1.0,0.0,0.0,0.0,1.0,0.0,0.0,0.0,1.0
1479745220553442365,116,1479745220552263516,,-9.24742412567,-4.18951702118,-118.767494202,0.00114700000267,1.0,0.0,0.0,0.0,1.0,0.0,0.0,0.0,1.0,-1.58536589146,-10.8536586761,2.5,1.0,0.0,0.0,0.0,1.0,0.0,0.0,0.0,1.0,-2.64319863281,-0.938527050781,9.40921193989,1.0,0.0,0.0,0.0,1.0,0.0,0.0,0.0,1.0
1479745220588175708,117,1479745220586948838,,-9.22127819061,-4.30417346954,-118.541954041,0.0010000000475,1.0,0.0,0.0,0.0,1.0,0.0,0.0,0.0,1.0,-1.46341466904,-0.12195122242,9.08536529541,1.0,0.0,0.0,0.0,1.0,0.0,0.0,0.0,1.0,-0.407014282227,0.0287304199219,9.56244201519,1.0,0.0,0.0,0.0,1.0,0.0,0.0,0.0,1.0
1479745220623464153,118,1479745220622561552,,-9.07332229614,-4.39778757095,-118.522766113,0.00317199993879,1.0,0.0,0.0,0.0,1.0,0.0,0.0,0.0,1.0,-3.17073178291,-12.3780488968,-5.54878091812,1.0,0.0,0.0,0.0,1.0,0.0,0.0,0.0,1.0,-0.368707055664,-0.488417138672,9.69651672363,1.0,0.0,0.0,0.0,1.0,0.0,0.0,0.0,1.0
1479745220666591002,119,1479745220657460728,,-8.92375278473,-4.48329877853,-118.414550781,0.00096700002905,1.0,0.0,0.0,0.0,1.0,0.0,0.0,0.0,1.0,-0.670731723309,1.03658533096,6.64634132385,1.0,0.0,0.0,0.0,1.0,0.0,0.0,0.0,1.0,0.809240161133,-0.632069238281,9.70609353027,1.0,0.0,0.0,0.0,1.0,0.0,0.0,0.0,1.0
1479745220694454530,120,1479745220692858912,,-8.81926441193,-4.60729932785,-118.373764038,0.00135999999475,1.0,0.0,0.0,0.0,1.0,0.0,0.0,0.0,1.0,-2.31707310677,0.426829278469,-1.58536589146,1.0,0.0,0.0,0.0,1.0,0.0,0.0,0.0,1.0,-0.119710083008,-0.545877978516,9.90720646973,1.0,0.0,0.0,0.0,1.0,0.0,0.0,0.0,1.0
1479745220728805687,121,1479745220727858764,,-8.49066066742,-4.67927932739,-118.323196411,0.000975999981165,1.0,0.0,0.0,0.0,1.0,0.0,0.0,0.0,1.0,-1.52439022064,2.74390244484,3.35365867615,1.0,0.0,0.0,0.0,1.0,0.0,0.0,0.0,1.0,0.0287304199219,-0.3064578125,9.8305920166,1.0,0.0,0.0,0.0,1.0,0.0,0.0,0.0,1.0
1479745220765160377,122,1479745220763997570,,-8.15163803101,-4.74441194534,-118.274017334,0.00333700003102,1.0,0.0,0.0,0.0,1.0,0.0,0.0,0.0,1.0,-2.5,7.56097555161,2.68292689323,1.0,0.0,0.0,0.0,1.0,0.0,0.0,0.0,1.0,-0.703895288086,-0.392649072266,10.0412817627,1.0,0.0,0.0,0.0,1.0,0.0,0.0,0.0,1.0
1479745220805026303,123,1479745220803817974,,-7.80470180511,-4.79029178619,-118.254501343,0.00478699989617,1.0,0.0,0.0,0.0,1.0,0.0,0.0,0.0,1.0,-1.76829278469,-3.53658556938,5.60975599289,1.0,0.0,0.0,0.0,1.0,0.0,0.0,0.0,1.0,-0.162805712891,0.239420166016,9.90720646973,1.0,0.0,0.0,0.0,1.0,0.0,0.0,0.0,1.0
1479745220843415411,124,1479745220837994809,,-7.67442464828,-4.85542201996,-118.064285278,0.00104899995495,1.0,0.0,0.0,0.0,1.0,0.0,0.0,0.0,1.0,-2.5,-10.1219511032,2.25609779358,1.0,0.0,0.0,0.0,1.0,0.0,0.0,0.0,1.0,0.416591088867,-0.316034619141,10.1466266357,1.0,0.0,0.0,0.0,1.0,0.0,0.0,0.0,1.0
1479745220874282625,125,1479745220872855860,,-7.754301548,-4.91410684586,-117.910476685,0.0013190000318,1.0,0.0,0.0,0.0,1.0,0.0,0.0,0.0,1.0,-1.2804877758,-12.1951217651,4.02439022064,1.0,0.0,0.0,0.0,1.0,0.0,0.0,0.0,1.0,-0.3064578125,-0.3064578125,10.2423947021,1.0,0.0,0.0,0.0,1.0,0.0,0.0,0.0,1.0
1479745220908516959,126,1479745220907158371,,-7.94690227509,-4.99776077271,-117.671424866,0.00141999998596,1.0,0.0,0.0,0.0,1.0,0.0,0.0,0.0,1.0,-1.03658533096,-11.4634151459,6.89024400711,1.0,0.0,0.0,0.0,1.0,0.0,0.0,0.0,1.0,0.814028564453,-0.976834277344,9.66778688823,1.0,0.0,0.0,0.0,1.0,0.0,0.0,0.0,1.0
1479745220945579667,127,1479745220943764415,,-8.19741344452,-5.08376741409,-117.425216675,0.0016009999672,1.0,0.0,0.0,0.0,1.0,0.0,0.0,0.0,1.0,-1.2804877758,0.670731723309,6.70731735229,1.0,0.0,0.0,0.0,1.0,0.0,0.0,0.0,1.0,1.32638771973,-0.134075302102,10.1562034424,1.0,0.0,0.0,0.0,1.0,0.0,0.0,0.0,1.0
1479745220979051922,128,1479745220977558543,,-8.00424194336,-5.15759038925,-117.260910034,0.00112999998964,1.0,0.0,0.0,0.0,1.0,0.0,0.0,0.0,1.0,-2.19512200356,-12.8658542633,-2.31707310677,1.0,0.0,0.0,0.0,1.0,0.0,0.0,0.0,1.0,-3.05978972168,-0.555454785156,9.39005832661,1.0,0.0,0.0,0.0,1.0,0.0,0.0,0.0,1.0
1479745221021101276,129,1479745221012739696,,-8.15251731873,-5.20053815842,-117.040863037,0.00131399999373,1.0,0.0,0.0,0.0,1.0,0.0,0.0,0.0,1.0,-1.70731711388,2.62195134163,10.548781395,1.0,0.0,0.0,0.0,1.0,0.0,0.0,0.0,1.0,3.40455476074,-0.196324536133,10.1466266357,1.0,0.0,0.0,0.0,1.0,0.0,0.0,0.0,1.0
1479745221048347202,130,1479745221047177520,,-7.91947174072,-5.27418708801,-116.793357849,0.00106699997559,1.0,0.0,0.0,0.0,1.0,0.0,0.0,0.0,1.0,-2.13414645195,-0.426829278469,1.40243899822,1.0,0.0,0.0,0.0,1.0,0.0,0.0,0.0,1.0,0.0526724365234,-0.60812722168,10.1466266357,1.0,0.0,0.0,0.0,1.0,0.0,0.0,0.0,1.0
1479745221083937469,131,1479745221082565391,,-7.87084007263,-5.31770896912,-116.68321228,0.00147899996955,1.0,0.0,0.0,0.0,1.0,0.0,0.0,0.0,1.0,-0.304878056049,1.52439022064,9.93902492523,1.0,0.0,0.0,0.0,1.0,0.0,0.0,0.0,1.0,0.651222851562,-0.430956298828,10.2902787354,1.0,0.0,0.0,0.0,1.0,0.0,0.0,0.0,1.0
1479745221119742786,132,1479745221116745768,,-7.57169294357,-5.3805513382,-116.355758667,0.00107200001366,1.0,0.0,0.0,0.0,1.0,0.0,0.0,0.0,1.0,-0.609756112099,6.21951246262,4.81707286835,1.0,0.0,0.0,0.0,1.0,0.0,0.0,0.0,1.0,1.59932670898,-0.0191536132812,10.9702320068,1.0,0.0,0.0,0.0,1.0,0.0,0.0,0.0,1.0
1479745221155957477,133,1479745221154146651,,-7.23030805588,-5.43724775314,-116.316131592,0.00100499996915,1.0,0.0,0.0,0.0,1.0,0.0,0.0,0.0,1.0,-0.670731723309,-2.13414645195,1.46341466904,1.0,0.0,0.0,0.0,1.0,0.0,0.0,0.0,1.0,0.392649072266,0.00478840332031,10.1466266357,1.0,0.0,0.0,0.0,1.0,0.0,0.0,0.0,1.0
1479745221187999425,134,1479745221186861878,,-7.01529550552,-5.45173358917,-116.002082825,0.001200000057,1.0,0.0,0.0,0.0,1.0,0.0,0.0,0.0,1.0,-1.8292683363,5.97560977936,6.46341466904,1.0,0.0,0.0,0.0,1.0,0.0,0.0,0.0,1.0,1.04866025408,-0.799663354492,9.64863327495,1.0,0.0,0.0,0.0,1.0,0.0,0.0,0.0,1.0
1479745221224093127,135,1479745221222719331,,-6.80978441238,-5.52134037018,-115.821746826,0.00248400005512,1.0,0.0,0.0,0.0,1.0,0.0,0.0,0.0,1.0,-1.76829278469,12.8048782349,6.64634132385,1.0,0.0,0.0,0.0,1.0,0.0,0.0,0.0,1.0,1.23061965332,-0.368707055664,9.96466730957,1.0,0.0,0.0,0.0,1.0,0.0,0.0,0.0,1.0
1479745221257929026,136,1479745221256673718,,-6.32613325119,-5.5374045372,-115.717170715,0.00103599997237,1.0,0.0,0.0,0.0,1.0,0.0,0.0,0.0,1.0,-0.792682945728,2.80487799644,-1.46341466904,1.0,0.0,0.0,0.0,1.0,0.0,0.0,0.0,1.0,-2.19787712402,-0.378283862305,9.83538041992,1.0,0.0,0.0,0.0,1.0,0.0,0.0,0.0,1.0
1479745221292975180,137,1479745221291866382,,-5.96950626373,-5.52462434769,-115.644218445,0.00108099996578,1.0,0.0,0.0,0.0,1.0,0.0,0.0,0.0,1.0,-1.03658533096,5.79268312454,5.60975599289,1.0,0.0,0.0,0.0,1.0,0.0,0.0,0.0,1.0,1.33117612305,-0.124498486328,10.1609918457,1.0,0.0,0.0,0.0,1.0,0.0,0.0,0.0,1.0
1479745221327886595,138,1479745221326679673,,-5.67967033386,-5.54104995728,-115.571540833,0.00112499995157,1.0,0.0,0.0,0.0,1.0,0.0,0.0,0.0,1.0,-1.76829278469,4.93902444839,-0.548780500889,1.0,0.0,0.0,0.0,1.0,0.0,0.0,0.0,1.0,0.857124194336,-0.349553442383,10.2040874756,1.0,0.0,0.0,0.0,1.0,0.0,0.0,0.0,1.0
1479745221364038057,139,1479745221362291606,,-5.32018613815,-5.53980302811,-115.515945435,0.00116700003855,1.0,0.0,0.0,0.0,1.0,0.0,0.0,0.0,1.0,-1.64634156227,6.64634132385,1.52439022064,1.0,0.0,0.0,0.0,1.0,0.0,0.0,0.0,1.0,0.60812722168,-0.196324536133,10.3716815918,1.0,0.0,0.0,0.0,1.0,0.0,0.0,0.0,1.0
1479745221397239062,140,1479745221395948912,,-4.97761487961,-5.56423521042,-115.446990967,0.000959999975748,1.0,0.0,0.0,0.0,1.0,0.0,0.0,0.0,1.0,-1.52439022064,5.24390268326,2.01219511032,1.0,0.0,0.0,0.0,1.0,0.0,0.0,0.0,1.0,-0.114921679688,-0.407014282227,10.0077629395,1.0,0.0,0.0,0.0,1.0,0.0,0.0,0.0,1.0
1479745221432373497,141,1479745221431195846,,-4.71938514709,-5.59170246124,-115.38331604,0.00113200000487,1.0,0.0,0.0,0.0,1.0,0.0,0.0,0.0,1.0,-2.43902444839,2.19512200356,1.52439022064,1.0,0.0,0.0,0.0,1.0,0.0,0.0,0.0,1.0,0.00957680664062,-0.493205541992,10.2519715088,1.0,0.0,0.0,0.0,1.0,0.0,0.0,0.0,1.0
1479745221467580276,142,1479745221466448510,,-4.55454444885,-5.63925933838,-115.292221069,0.00111499999184,1.0,0.0,0.0,0.0,1.0,0.0,0.0,0.0,1.0,-2.37804889679,3.53658556938,1.40243899822,1.0,0.0,0.0,0.0,1.0,0.0,0.0,0.0,1.0,-0.928950244141,-0.727837304687,9.81622680664,1.0,0.0,0.0,0.0,1.0,0.0,0.0,0.0,1.0
1479745221504190173,143,1479745221502699451,,-4.40509366989,-5.6806845665,-115.268959045,0.00160700001288,1.0,0.0,0.0,0.0,1.0,0.0,0.0,0.0,1.0,-1.64634156227,0.670731723309,0.853658556938,1.0,0.0,0.0,0.0,1.0,0.0,0.0,0.0,1.0,-0.450109912109,-0.469263525391,10.0269165527,1.0,0.0,0.0,0.0,1.0,0.0,0.0,0.0,1.0
1479745221539015808,144,1479745221537645865,,-4.24906015396,-5.66903781891,-115.142364502,0.00107999995816,1.0,0.0,0.0,0.0,1.0,0.0,0.0,0.0,1.0,-1.70731711388,-13.7804880142,0.792682945728,1.0,0.0,0.0,0.0,1.0,0.0,0.0,0.0,1.0,-1.62805712891,-0.186747729492,9.94551369629,1.0,0.0,0.0,0.0,1.0,0.0,0.0,0.0,1.0
1479745221574076389,145,1479745221572902019,,-4.56030607224,-5.67820882797,-114.94883728,0.00157700001728,1.0,0.0,0.0,0.0,1.0,0.0,0.0,0.0,1.0,-2.07317066193,1.34146344662,6.34146356583,1.0,0.0,0.0,0.0,1.0,0.0,0.0,0.0,1.0,1.83395847168,-0.689530078125,10.5153336914,1.0,0.0,0.0,0.0,1.0,0.0,0.0,0.0,1.0
1479745221608935929,146,1479745221607820465,,-4.49416351318,-5.71880674362,-114.77142334,0.00104799994733,1.0,0.0,0.0,0.0,1.0,0.0,0.0,0.0,1.0,-1.70731711388,-0.0609756112099,-0.12195122242,1.0,0.0,0.0,0.0,1.0,0.0,0.0,0.0,1.0,-0.0287304199219,-0.407014282227,10.1035310059,1.0,0.0,0.0,0.0,1.0,0.0,0.0,0.0,1.0
1479745221644949058,147,1479745221642782661,,-4.45341968536,-5.75945949554,-114.656547546,0.00165899994317,1.0,0.0,0.0,0.0,1.0,0.0,0.0,0.0,1.0,-0.853658556938,2.56097555161,7.07317113876,1.0,0.0,0.0,0.0,1.0,0.0,0.0,0.0,1.0,-0.138863696289,-0.325611425781,10.433930835,1.0,0.0,0.0,0.0,1.0,0.0,0.0,0.0,1.0
1479745221679472767,148,1479745221678024231,,-4.39439105988,-5.83088350296,-114.484397888,0.0010529999854,1.0,0.0,0.0,0.0,1.0,0.0,0.0,0.0,1.0,-2.07317066193,0.487804889679,0.975609779358,1.0,0.0,0.0,0.0,1.0,0.0,0.0,0.0,1.0,1.06302561017,-0.521935925381,10.0173397461,1.0,0.0,0.0,0.0,1.0,0.0,0.0,0.0,1.0
1479745221715231834,149,1479745221713127572,,-4.24859523773,-5.83330011368,-114.423187256,0.000991999986582,1.0,0.0,0.0,0.0,1.0,0.0,0.0,0.0,1.0,-2.19512200356,3.71951246262,0.12195122242,1.0,0.0,0.0,0.0,1.0,0.0,0.0,0.0,1.0,0.76614453125,-0.253785375977,10.5153336914,1.0,0.0,0.0,0.0,1.0,0.0,0.0,0.0,1.0
1479745221748843515,150,1479745221747619718,,-3.9965493679,-5.84408998489,-114.408737183,0.000957000011113,1.0,0.0,0.0,0.0,1.0,0.0,0.0,0.0,1.0,-1.8292683363,7.50000047684,0.426829278469,1.0,0.0,0.0,0.0,1.0,0.0,0.0,0.0,1.0,0.732625708008,-0.435744702148,10.0317049561,1.0,0.0,0.0,0.0,1.0,0.0,0.0,0.0,1.0
1479745221784624302,151,1479745221783372015,,-3.67191696167,-5.84755277634,-114.387863159,0.00207499996759,1.0,0.0,0.0,0.0,1.0,0.0,0.0,0.0,1.0,-2.37804889679,4.39024400711,-2.25609779358,1.0,0.0,0.0,0.0,1.0,0.0,0.0,0.0,1.0,-0.445321508789,-0.751779321289,10.1466266357,1.0,0.0,0.0,0.0,1.0,0.0,0.0,0.0,1.0
1479745221821757270,152,1479745221818225931,,-3.3573923111,-5.86276817322,-114.371444702,0.00100499996915,1.0,0.0,0.0,0.0,1.0,0.0,0.0,0.0,1.0,-1.70731711388,0.18292683363,1.52439022064,1.0,0.0,0.0,0.0,1.0,0.0,0.0,0.0,1.0,-0.277727392578,-0.296881024126,10.4961800781,1.0,0.0,0.0,0.0,1.0,0.0,0.0,0.0,1.0
1479745221854668746,153,1479745221853504896,,-3.26066374779,-5.87719392776,-114.270202637,0.00113099999726,1.0,0.0,0.0,0.0,1.0,0.0,0.0,0.0,1.0,-2.80487799644,-4.93902444839,2.5,1.0,0.0,0.0,0.0,1.0,0.0,0.0,0.0,1.0,-0.392649072266,-0.497993945312,10.0556469727,1.0,0.0,0.0,0.0,1.0,0.0,0.0,0.0,1.0
1479745221889406932,154,1479745221888217354,,-3.43003416061,-5.88906860352,-114.101264954,0.00117900001351,1.0,0.0,0.0,0.0,1.0,0.0,0.0,0.0,1.0,-1.95121955872,-4.39024400711,5.12195110321,1.0,0.0,0.0,0.0,1.0,0.0,0.0,0.0,1.0,0.962469067383,0.229843359375,10.405200415,1.0,0.0,0.0,0.0,1.0,0.0,0.0,0.0,1.0
1479745221924553086,155,1479745221923373091,,-3.57909107208,-5.90471076965,-113.925804138,0.00156799994875,1.0,0.0,0.0,0.0,1.0,0.0,0.0,0.0,1.0,-2.68292689323,-0.609756112099,3.47560977936,1.0,0.0,0.0,0.0,1.0,0.0,0.0,0.0,1.0,0.593762048251,-0.301669427446,9.98382092285,1.0,0.0,0.0,0.0,1.0,0.0,0.0,0.0,1.0
1479745221961955376,156,1479745221958781171,,-3.52996277809,-5.90359926224,-113.815261841,0.00115100003313,1.0,0.0,0.0,0.0,1.0,0.0,0.0,0.0,1.0,-1.58536589146,5.91463422775,0.609756112099,1.0,0.0,0.0,0.0,1.0,0.0,0.0,0.0,1.0,1.29286889648,-0.277727392578,10.1274730225,1.0,0.0,0.0,0.0,1.0,0.0,0.0,0.0,1.0
1479745221995291850,157,1479745221994003782,,-3.35912036896,-5.93235826492,-113.79750824,0.0011040000245,1.0,0.0,0.0,0.0,1.0,0.0,0.0,0.0,1.0,-2.31707310677,3.29268312454,0.609756112099,1.0,0.0,0.0,0.0,1.0,0.0,0.0,0.0,1.0,1.09175595703,-0.46447512207,10.673351001,1.0,0.0,0.0,0.0,1.0,0.0,0.0,0.0,1.0
1479745222030618940,158,1479745222029237956,,-3.19647669792,-5.9879527092,-113.612236023,0.00104799994733,1.0,0.0,0.0,0.0,1.0,0.0,0.0,0.0,1.0,-3.17073178291,3.10975623131,1.58536589146,1.0,0.0,0.0,0.0,1.0,0.0,0.0,0.0,1.0,0.134075302102,-0.785298144531,10.2711251221,1.0,0.0,0.0,0.0,1.0,0.0,0.0,0.0,1.0
1479745222066682694,159,1479745222064929785,,-3.01425361633,-5.99941492081,-113.598602295,0.00160299998242,1.0,0.0,0.0,0.0,1.0,0.0,0.0,0.0,1.0,-2.19512200356,0.609756112099,2.13414645195,1.0,0.0,0.0,0.0,1.0,0.0,0.0,0.0,1.0,-0.737414111328,-0.397437475586,9.89762966309,1.0,0.0,0.0,0.0,1.0,0.0,0.0,0.0,1.0
1479745222102350773,160,1479745222100527447,,-2.87965011597,-5.97644805908,-113.500137329,0.00126799999271,1.0,0.0,0.0,0.0,1.0,0.0,0.0,0.0,1.0,-2.13414645195,-7.25609779358,1.52439022064,1.0,0.0,0.0,0.0,1.0,0.0,0.0,0.0,1.0,0.430956298828,-0.368707055664,10.1945106689,1.0,0.0,0.0,0.0,1.0,0.0,0.0,0.0,1.0
1479745222136170682,161,1479745222134961573,,-3.03153800964,-5.98116064072,-113.386863708,0.001007999992,1.0,0.0,0.0,0.0,1.0,0.0,0.0,0.0,1.0,-1.52439022064,3.04878044128,3.53658556938,1.0,0.0,0.0,0.0,1.0,0.0,0.0,0.0,1.0,1.89620771484,-0.177170922852,10.6158901611,1.0,0.0,0.0,0.0,1.0,0.0,0.0,0.0,1.0
1479745222171327409,162,1479745222170040851,,-2.9458425045,-5.98129415512,-113.344818115,0.000961999990977,1.0,0.0,0.0,0.0,1.0,0.0,0.0,0.0,1.0,-3.96341490746,4.20731735229,-2.19512200356,1.0,0.0,0.0,0.0,1.0,0.0,0.0,0.0,1.0,-1.25456166992,-0.45489831543,9.54807680523,1.0,0.0,0.0,0.0,1.0,0.0,0.0,0.0,1.0
1479745222207128403,163,1479745222205993252,,-2.69736719131,-5.98073625565,-113.249755859,0.00146800000221,1.0,0.0,0.0,0.0,1.0,0.0,0.0,0.0,1.0,-2.31707310677,-2.5,2.86585378647,1.0,0.0,0.0,0.0,1.0,0.0,0.0,0.0,1.0,0.15801730957,-0.325611425781,10.4147772217,1.0,0.0,0.0,0.0,1.0,0.0,0.0,0.0,1.0
1479745222243875800,164,1479745222243054293,,-2.75871610641,-6.06008434296,-113.117126465,0.00128399999812,1.0,0.0,0.0,0.0,1.0,0.0,0.0,0.0,1.0,-2.19512200356,-6.21951246262,1.03658533096,1.0,0.0,0.0,0.0,1.0,0.0,0.0,0.0,1.0,-0.076614453125,-0.790086547852,10.0843773926,1.0,0.0,0.0,0.0,1.0,0.0,0.0,0.0,1.0
1479745222278199405,165,1479745222276931754,,-2.96953463554,-6.10395479202,-113.017211914,0.00102099997457,1.0,0.0,0.0,0.0,1.0,0.0,0.0,0.0,1.0,-3.17073178291,-8.29268264771,3.04878044128,1.0,0.0,0.0,0.0,1.0,0.0,0.0,0.0,1.0,0.948103857422,-0.881066210937,10.1514150391,1.0,0.0,0.0,0.0,1.0,0.0,0.0,0.0,1.0
1479745222312977123,166,1479745222311709680,,-3.23239517212,-6.13032245636,-112.801979065,0.000961999990977,1.0,0.0,0.0,0.0,1.0,0.0,0.0,0.0,1.0,-2.98780488968,-3.71951246262,2.43902444839,1.0,0.0,0.0,0.0,1.0,0.0,0.0,0.0,1.0,1.32159931641,-0.0957680664062,10.1897222656,1.0,0.0,0.0,0.0,1.0,0.0,0.0,0.0,1.0
1479745222348007860,167,1479745222346791303,,-3.28803062439,-6.11761236191,-112.70337677,0.00099400000181,1.0,0.0,0.0,0.0,1.0,0.0,0.0,0.0,1.0,-1.8292683363,7.62195110321,3.53658556938,1.0,0.0,0.0,0.0,1.0,0.0,0.0,0.0,1.0,0.301669427446,-0.531512805087,9.93593688965,1.0,0.0,0.0,0.0,1.0,0.0,0.0,0.0,1.0
1479745222384188593,168,1479745222382817193,,-3.04123282433,-6.09367895126,-112.689987183,0.00180700002238,1.0,0.0,0.0,0.0,1.0,0.0,0.0,0.0,1.0,-1.52439022064,8.96341514587,1.2195122242,1.0,0.0,0.0,0.0,1.0,0.0,0.0,0.0,1.0,0.646434448242,-0.148440512063,10.1753570557,1.0,0.0,0.0,0.0,1.0,0.0,0.0,0.0,1.0
1479745222419098914,169,1479745222417219183,,-2.63815593719,-6.09219694138,-112.620063782,0.00101699994411,1.0,0.0,0.0,0.0,1.0,0.0,0.0,0.0,1.0,-1.52439022064,-2.56097555161,1.64634156227,1.0,0.0,0.0,0.0,1.0,0.0,0.0,0.0,1.0,-2.09253210485,-0.718260498047,9.69651672363,1.0,0.0,0.0,0.0,1.0,0.0,0.0,0.0,1.0
1479745222454008559,170,1479745222452608460,,-2.70228981972,-6.12943458557,-112.51789093,0.00163499999326,1.0,0.0,0.0,0.0,1.0,0.0,0.0,0.0,1.0,-2.74390244484,4.57317066193,2.01219511032,1.0,0.0,0.0,0.0,1.0,0.0,0.0,0.0,1.0,1.70467158203,-0.890643017578,10.2423947021,1.0,0.0,0.0,0.0,1.0,0.0,0.0,0.0,1.0
1479745222488242893,171,1479745222486892014,,-2.59916210175,-6.17529678345,-112.476173401,0.000998000032268,1.0,0.0,0.0,0.0,1.0,0.0,0.0,0.0,1.0,-1.95121955872,-1.76829278469,-3.7804877758,1.0,0.0,0.0,0.0,1.0,0.0,0.0,0.0,1.0,0.368707055664,-0.46447512207,10.5009684814,1.0,0.0,0.0,0.0,1.0,0.0,0.0,0.0,1.0
1479745222523839931,172,1479745222522719310,,-2.53233456612,-6.14896440506,-112.382713318,0.00180099997669,1.0,0.0,0.0,0.0,1.0,0.0,0.0,0.0,1.0,-5.85365867615,4.69512224197,3.04878044128,1.0,0.0,0.0,0.0,1.0,0.0,0.0,0.0,1.0,1.10612116699,-0.416591088867,9.26077202148,1.0,0.0,0.0,0.0,1.0,0.0,0.0,0.0,1.0
1479745222559164417,173,1479745222557446612,,-2.59069228172,-6.20867204666,-112.277236938,0.000959999975748,1.0,0.0,0.0,0.0,1.0,0.0,0.0,0.0,1.0,-2.01219511032,-4.51219558716,-0.243902444839,1.0,0.0,0.0,0.0,1.0,0.0,0.0,0.0,1.0,0.067037651051,-0.00957680664062,10.0173397461,1.0,0.0,0.0,0.0,1.0,0.0,0.0,0.0,1.0
1479745222593366356,174,1479745222592134694,,-2.48338913918,-6.19303369522,-112.2449646,0.00107100000605,1.0,0.0,0.0,0.0,1.0,0.0,0.0,0.0,1.0,-0.975609779358,-1.8292683363,2.56097555161,1.0,0.0,0.0,0.0,1.0,0.0,0.0,0.0,1.0,-0.134075302102,-0.0909796630859,10.0748005859,1.0,0.0,0.0,0.0,1.0,0.0,0.0,0.0,1.0
1479745222628710373,175,1479745222627570847,,-2.54396367073,-6.1910071373,-112.079566956,0.000959000026342,1.0,0.0,0.0,0.0,1.0,0.0,0.0,0.0,1.0,-2.25609779358,-1.46341466904,3.04878044128,1.0,0.0,0.0,0.0,1.0,0.0,0.0,0.0,1.0,0.890643017578,-0.191536132812,10.1609918457,1.0,0.0,0.0,0.0,1.0,0.0,0.0,0.0,1.0
1479745222664778971,176,1479745222663245123,,-2.57078146935,-6.19482564926,-111.922988892,0.00151099998038,1.0,0.0,0.0,0.0,1.0,0.0,0.0,0.0,1.0,-2.01219511032,1.34146344662,3.29268312454,1.0,0.0,0.0,0.0,1.0,0.0,0.0,0.0,1.0,0.0814028564453,-0.383072265625,10.1226846191,1.0,0.0,0.0,0.0,1.0,0.0,0.0,0.0,1.0
1479745222700692100,177,1479745222697506020,,-2.56391739845,-6.19299983978,-111.807121277,0.000981000019237,1.0,0.0,0.0,0.0,1.0,0.0,0.0,0.0,1.0,-2.25609779358,-1.09756100178,1.58536589146,1.0,0.0,0.0,0.0,1.0,0.0,0.0,0.0,1.0,0.507570751953,-0.407014282227,10.1418382324,1.0,0.0,0.0,0.0,1.0,0.0,0.0,0.0,1.0
1479745222733851544,178,1479745222732628059,,-2.59920454025,-6.25440120697,-111.755889893,0.000977999996394,1.0,0.0,0.0,0.0,1.0,0.0,0.0,0.0,1.0,-0.975609779358,-4.32926845551,-0.853658556938,1.0,0.0,0.0,0.0,1.0,0.0,0.0,0.0,1.0,-1.97761057129,-1.03429511719,9.76834277344,1.0,0.0,0.0,0.0,1.0,0.0,0.0,0.0,1.0
1479745222769600612,179,1479745222767831140,,-2.80939865112,-6.22882652283,-111.647789001,0.00104300002567,1.0,0.0,0.0,0.0,1.0,0.0,0.0,0.0,1.0,-3.53658556938,-0.18292683363,3.47560977936,1.0,0.0,0.0,0.0,1.0,0.0,0.0,0.0,1.0,2.31279880371,-0.488417138672,10.0795889893,1.0,0.0,0.0,0.0,1.0,0.0,0.0,0.0,1.0
1479745222805438533,180,1479745222804201715,,-2.9146296978,-6.24025583267,-111.61000061,0.00296399998479,1.0,0.0,0.0,0.0,1.0,0.0,0.0,0.0,1.0,-2.25609779358,4.75609779358,-0.487804889679,1.0,0.0,0.0,0.0,1.0,0.0,0.0,0.0,1.0,1.26892687988,-0.0574608398438,10.285490332,1.0,0.0,0.0,0.0,1.0,0.0,0.0,0.0,1.0
1479745222844858263,181,1479745222843409310,,-2.61759519577,-6.22030353546,-111.594993591,0.0043069999665,1.0,0.0,0.0,0.0,1.0,0.0,0.0,0.0,1.0,-1.64634156227,10.0,-1.95121955872,1.0,0.0,0.0,0.0,1.0,0.0,0.0,0.0,1.0,-1.33596452637,0.210689746094,9.89284125977,1.0,0.0,0.0,0.0,1.0,0.0,0.0,0.0,1.0
1479745222881127537,182,1479745222878239632,,-2.05382370949,-6.18111276627,-111.608467102,0.00104100001045,1.0,0.0,0.0,0.0,1.0,0.0,0.0,0.0,1.0,0.670731723309,12.0121955872,0.304878056049,1.0,0.0,0.0,0.0,1.0,0.0,0.0,0.0,1.0,3.33751711426,-0.416591088867,10.0077629395,1.0,0.0,0.0,0.0,1.0,0.0,0.0,0.0,1.0
1479745222913928388,183,1479745222912662247,,-1.62106513977,-6.04931402206,-111.491165161,0.00128199998289,1.0,0.0,0.0,0.0,1.0,0.0,0.0,0.0,1.0,2.25609779358,-8.90243911743,4.08536577225,1.0,0.0,0.0,0.0,1.0,0.0,0.0,0.0,1.0,-1.34075292969,-0.263362164351,10.6446205811,1.0,0.0,0.0,0.0,1.0,0.0,0.0,0.0,1.0
1479745222949458394,184,1479745222948076473,,-2.02048707008,-5.8874502182,-111.204933167,0.000973000016529,1.0,0.0,0.0,0.0,1.0,0.0,0.0,0.0,1.0,2.62195134163,-17.8048782349,4.63414621353,1.0,0.0,0.0,0.0,1.0,0.0,0.0,0.0,1.0,0.742202514648,-0.167594116211,10.1945106689,1.0,0.0,0.0,0.0,1.0,0.0,0.0,0.0,1.0
1479745222984114133,185,1479745222982880596,,-2.64308619499,-5.89026498795,-110.946281433,0.00270200008526,1.0,0.0,0.0,0.0,1.0,0.0,0.0,0.0,1.0,-3.35365867615,-17.1951217651,4.51219558716,1.0,0.0,0.0,0.0,1.0,0.0,0.0,0.0,1.0,1.16358193377,-0.344765039063,10.3333743652,1.0,0.0,0.0,0.0,1.0,0.0,0.0,0.0,1.0
1479745223023415894,186,1479745223021230278,,-3.26789975166,-5.98661279678,-110.665588379,0.00317699997686,1.0,0.0,0.0,0.0,1.0,0.0,0.0,0.0,1.0,-3.59756112099,-2.01219511032,5.85365867615,1.0,0.0,0.0,0.0,1.0,0.0,0.0,0.0,1.0,2.32237546422,-0.31124621582,10.3716815918,1.0,0.0,0.0,0.0,1.0,0.0,0.0,0.0,1.0
1479745223056191693,187,1479745223054951230,,-3.35381150246,-5.99276447296,-110.539749146,0.0011569999624,1.0,0.0,0.0,0.0,1.0,0.0,0.0,0.0,1.0,-2.56097555161,-0.914634168148,1.03658533096,1.0,0.0,0.0,0.0,1.0,0.0,0.0,0.0,1.0,-0.344765039063,-0.110133276367,10.5680061279,1.0,0.0,0.0,0.0,1.0,0.0,0.0,0.0,1.0
1479745223091351076,188,1479745223089944363,,-3.34120535851,-6.00392961502,-110.405807495,0.000957000011113,1.0,0.0,0.0,0.0,1.0,0.0,0.0,0.0,1.0,-2.13414645195,-1.09756100178,4.14634132385,1.0,0.0,0.0,0.0,1.0,0.0,0.0,0.0,1.0,0.598550451572,-0.665588061523,9.70609353027,1.0,0.0,0.0,0.0,1.0,0.0,0.0,0.0,1.0
1479745223126577490,189,1479745223124805674,,-3.46154236794,-6.06261491776,-110.31463623,0.00232199998572,1.0,0.0,0.0,0.0,1.0,0.0,0.0,0.0,1.0,-2.98780488968,2.19512200356,4.81707286835,1.0,0.0,0.0,0.0,1.0,0.0,0.0,0.0,1.0,1.72861359863,-0.0191536132812,9.8305920166,1.0,0.0,0.0,0.0,1.0,0.0,0.0,0.0,1.0
1479745223164074415,190,1479745223163129627,,-3.25939965248,-6.04021644592,-110.137878418,0.00495100021362,1.0,0.0,0.0,0.0,1.0,0.0,0.0,0.0,1.0,-0.914634168148,3.96341490746,2.68292689323,1.0,0.0,0.0,0.0,1.0,0.0,0.0,0.0,1.0,1.09175595703,-0.383072265625,10.2232410889,1.0,0.0,0.0,0.0,1.0,0.0,0.0,0.0,1.0
1479745223203469300,191,1479745223198054063,,-3.23936152458,-6.00980377197,-110.031356812,0.00104600004852,1.0,0.0,0.0,0.0,1.0,0.0,0.0,0.0,1.0,0.18292683363,4.2682929039,2.13414645195,1.0,0.0,0.0,0.0,1.0,0.0,0.0,0.0,1.0,0.272938989258,-0.737414111328,10.3908352051,1.0,0.0,0.0,0.0,1.0,0.0,0.0,0.0,1.0
1479745223233918182,192,1479745223232890791,,-3.17021203041,-6.02563714981,-109.879127502,0.00102600001264,1.0,0.0,0.0,0.0,1.0,0.0,0.0,0.0,1.0,-2.37804889679,3.29268312454,2.92682933807,1.0,0.0,0.0,0.0,1.0,0.0,0.0,0.0,1.0,0.837970581055,-0.517147558594,9.93114848633,1.0,0.0,0.0,0.0,1.0,0.0,0.0,0.0,1.0
1479745223268997097,193,1479745223267983716,,-3.17393803596,-6.04164743423,-109.81477356,0.00102500000503,1.0,0.0,0.0,0.0,1.0,0.0,0.0,0.0,1.0,-1.58536589146,-3.17073178291,1.46341466904,1.0,0.0,0.0,0.0,1.0,0.0,0.0,0.0,1.0,2.47081611328,0.349553442383,10.4722380615,1.0,0.0,0.0,0.0,1.0,0.0,0.0,0.0,1.0
1479745223304304031,194,1479745223303095286,,-3.22056007385,-6.06084108353,-109.792427063,0.00407700007781,1.0,0.0,0.0,0.0,1.0,0.0,0.0,0.0,1.0,-2.98780488968,12.1951217651,-0.792682945728,1.0,0.0,0.0,0.0,1.0,0.0,0.0,0.0,1.0,0.545877978516,-0.215478149414,10.2471831055,1.0,0.0,0.0,0.0,1.0,0.0,0.0,0.0,1.0
1479745223339885183,195,1479745223337606807,,-2.98384141922,-6.15537977219,-109.892051697,0.000983000034466,1.0,0.0,0.0,0.0,1.0,0.0,0.0,0.0,1.0,-3.7804877758,3.47560977936,-2.43902444839,1.0,0.0,0.0,0.0,1.0,0.0,0.0,0.0,1.0,0.881066210937,-0.670376464844,10.0077629395,1.0,0.0,0.0,0.0,1.0,0.0,0.0,0.0,1.0
1479745223374287277,196,1479745223373073949,,-2.79878330231,-6.10098409653,-109.907279968,0.00152399996296,1.0,0.0,0.0,0.0,1.0,0.0,0.0,0.0,1.0,-2.43902444839,7.19512224197,0.792682945728,1.0,0.0,0.0,0.0,1.0,0.0,0.0,0.0,1.0,0.478840332031,-0.167594116211,10.5105452881,1.0,0.0,0.0,0.0,1.0,0.0,0.0,0.0,1.0
1479745223409206869,197,1479745223408025676,,-2.49180722237,-6.09863424301,-109.887321472,0.00100699998438,1.0,0.0,0.0,0.0,1.0,0.0,0.0,0.0,1.0,-1.8292683363,6.52439069748,1.09756100178,1.0,0.0,0.0,0.0,1.0,0.0,0.0,0.0,1.0,1.04866025408,-0.383072265625,10.2902787354,1.0,0.0,0.0,0.0,1.0,0.0,0.0,0.0,1.0
1479745223444089326,198,1479745223442921310,,-2.32192134857,-6.1293258667,-109.892127991,0.00329399993643,1.0,0.0,0.0,0.0,1.0,0.0,0.0,0.0,1.0,-3.23170733452,5.79268312454,3.17073178291,1.0,0.0,0.0,0.0,1.0,0.0,0.0,0.0,1.0,1.10133276367,-0.526724328702,10.1418382324,1.0,0.0,0.0,0.0,1.0,0.0,0.0,0.0,1.0
1479745223483284369,199,1479745223478420015,,-2.21294236183,-6.15353155136,-109.78780365,0.0012009999482,1.0,0.0,0.0,0.0,1.0,0.0,0.0,0.0,1.0,-2.56097555161,5.67073154449,0.853658556938,1.0,0.0,0.0,0.0,1.0,0.0,0.0,0.0,1.0,1.06781401349,-0.248996972656,10.0412817627,1.0,0.0,0.0,0.0,1.0,0.0,0.0,0.0,1.0
1479745223515184963,200,1479745223513979344,,-2.05338430405,-6.13119316101,-109.812026978,0.00125500001013,1.0,0.0,0.0,0.0,1.0,0.0,0.0,0.0,1.0,-0.853658556938,10.7926826477,0.975609779358,1.0,0.0,0.0,0.0,1.0,0.0,0.0,0.0,1.0,1.22104284668,-0.541089611728,10.3094323486,1.0,0.0,0.0,0.0,1.0,0.0,0.0,0.0,1.0
1479745223550215493,201,1479745223549048675,,-1.70695054531,-6.10442066193,-109.817642212,0.00113700004295,1.0,0.0,0.0,0.0,1.0,0.0,0.0,0.0,1.0,-2.25609779358,10.8536586761,-0.853658556938,1.0,0.0,0.0,0.0,1.0,0.0,0.0,0.0,1.0,0.0957680664062,-0.435744702148,9.83538041992,1.0,0.0,0.0,0.0,1.0,0.0,0.0,0.0,1.0
1479745223585147845,202,1479745223583900715,,-1.24584186077,-6.07439899445,-109.729560852,0.00132499996107,1.0,0.0,0.0,0.0,1.0,0.0,0.0,0.0,1.0,-1.8292683363,7.37804937363,5.30487823486,1.0,0.0,0.0,0.0,1.0,0.0,0.0,0.0,1.0,-0.0430956298828,-0.186747729492,10.2615483154,1.0,0.0,0.0,0.0,1.0,0.0,0.0,0.0,1.0
1479745223620783580,203,1479745223618471767,,-0.999006986618,-6.06018352509,-109.574012756,0.00116300000809,1.0,0.0,0.0,0.0,1.0,0.0,0.0,0.0,1.0,-2.25609779358,7.31707334518,2.98780488968,1.0,0.0,0.0,0.0,1.0,0.0,0.0,0.0,1.0,1.20188930646,-0.344765039063,10.3190091553,1.0,0.0,0.0,0.0,1.0,0.0,0.0,0.0,1.0
1479745223654640312,204,1479745223653679118,,-0.816371202469,-6.0903840065,-109.527557373,0.00118999998085,1.0,0.0,0.0,0.0,1.0,0.0,0.0,0.0,1.0,-0.487804889679,-10.548781395,-1.2804877758,1.0,0.0,0.0,0.0,1.0,0.0,0.0,0.0,1.0,-1.45567460937,-0.45489831543,9.77791958008,1.0,0.0,0.0,0.0,1.0,0.0,0.0,0.0,1.0
1479745223689862559,205,1479745223688933761,,-1.17685222626,-6.12194919586,-109.377975464,0.00111700000707,1.0,0.0,0.0,0.0,1.0,0.0,0.0,0.0,1.0,-5.85365867615,-7.07317113876,6.09756088257,1.0,0.0,0.0,0.0,1.0,0.0,0.0,0.0,1.0,2.23139594727,-0.952892260742,9.30386706685,1.0,0.0,0.0,0.0,1.0,0.0,0.0,0.0,1.0
1479745223725819439,206,1479745223724695381,,-1.42178595066,-6.14100074768,-109.182487488,0.00188100000378,1.0,0.0,0.0,0.0,1.0,0.0,0.0,0.0,1.0,-2.37804889679,-3.65853667259,2.13414645195,1.0,0.0,0.0,0.0,1.0,0.0,0.0,0.0,1.0,-0.148440512063,0.181959326172,10.4147772217,1.0,0.0,0.0,0.0,1.0,0.0,0.0,0.0,1.0
1479745223763316676,207,1479745223761792620,,-1.56230890751,-6.09642601013,-108.964515686,0.00111499999184,1.0,0.0,0.0,0.0,1.0,0.0,0.0,0.0,1.0,-0.975609779358,-4.69512224197,5.12195110321,1.0,0.0,0.0,0.0,1.0,0.0,0.0,0.0,1.0,1.30723410645,-0.191536132812,10.5105452881,1.0,0.0,0.0,0.0,1.0,0.0,0.0,0.0,1.0
1479745223797196846,208,1479745223795973570,,-1.82307553291,-6.13819646835,-108.760559082,0.00169599999208,1.0,0.0,0.0,0.0,1.0,0.0,0.0,0.0,1.0,-2.07317066193,-0.365853667259,4.14634132385,1.0,0.0,0.0,0.0,1.0,0.0,0.0,0.0,1.0,0.521935925381,-0.948103857422,10.1322614258,1.0,0.0,0.0,0.0,1.0,0.0,0.0,0.0,1.0
1479745223833551588,209,1479745223831544878,,-1.89545917511,-6.1787481308,-108.600097656,0.00105099997018,1.0,0.0,0.0,0.0,1.0,0.0,0.0,0.0,1.0,-0.487804889679,10.7926826477,3.17073178291,1.0,0.0,0.0,0.0,1.0,0.0,0.0,0.0,1.0,0.928950244141,-1.34075292969,10.3333743652,1.0,0.0,0.0,0.0,1.0,0.0,0.0,0.0,1.0
1479745223867911599,210,1479745223866686396,,-1.51914417744,-6.08438825607,-108.505104065,0.00149900000542,1.0,0.0,0.0,0.0,1.0,0.0,0.0,0.0,1.0,-0.609756112099,17.6829280853,4.69512224197,1.0,0.0,0.0,0.0,1.0,0.0,0.0,0.0,1.0,1.67115275879,-0.172382519531,10.1035310059,1.0,0.0,0.0,0.0,1.0,0.0,0.0,0.0,1.0
1479745223904644100,211,1479745223903482230,,-0.884703695774,-5.97113513947,-108.423858643,0.00231399992481,1.0,0.0,0.0,0.0,1.0,0.0,0.0,0.0,1.0,-1.95121955872,28.3536586761,2.19512200356,1.0,0.0,0.0,0.0,1.0,0.0,0.0,0.0,1.0,0.579396801758,0.0191536132812,10.3285859619,1.0,0.0,0.0,0.0,1.0,0.0,0.0,0.0,1.0
1479745223940028170,212,1479745223938662082,,-0.052164722234,-6.04447221756,-108.591377258,0.00112599995919,1.0,0.0,0.0,0.0,1.0,0.0,0.0,0.0,1.0,-0.914634168148,11.2804880142,-7.62195110321,1.0,0.0,0.0,0.0,1.0,0.0,0.0,0.0,1.0,-0.665588061523,-0.742202514648,10.1849338623,1.0,0.0,0.0,0.0,1.0,0.0,0.0,0.0,1.0
1479745223974169536,213,1479745223973271831,,0.523683011532,-6.13855218887,-108.912452698,0.00127300003078,1.0,0.0,0.0,0.0,1.0,0.0,0.0,0.0,1.0,-1.76829278469,15.0609760284,-0.365853667259,1.0,0.0,0.0,0.0,1.0,0.0,0.0,0.0,1.0,-1.47961662598,-0.713472094727,9.94551369629,1.0,0.0,0.0,0.0,1.0,0.0,0.0,0.0,1.0
1479745224009381314,214,1479745224008454964,,1.06556904316,-6.20553970337,-109.003494263,0.00103899999522,1.0,0.0,0.0,0.0,1.0,0.0,0.0,0.0,1.0,-2.68292689323,8.17073154449,-2.80487799644,1.0,0.0,0.0,0.0,1.0,0.0,0.0,0.0,1.0,1.11090957031,-1.07739082014,10.2902787354,1.0,0.0,0.0,0.0,1.0,0.0,0.0,0.0,1.0
1479745224045281736,215,1479745224044136220,,1.55477595329,-6.12899446487,-109.112312317,0.00216399994679,1.0,0.0,0.0,0.0,1.0,0.0,0.0,0.0,1.0,-2.80487799644,8.78048801422,-6.34146356583,1.0,0.0,0.0,0.0,1.0,0.0,0.0,0.0,1.0,-2.1930887207,0.0143652099609,9.99339772949,1.0,0.0,0.0,0.0,1.0,0.0,0.0,0.0,1.0
1479745224081238198,216,1479745224079676278,,2.07356834412,-6.03875255585,-109.095214844,0.00309500005096,1.0,0.0,0.0,0.0,1.0,0.0,0.0,0.0,1.0,-4.63414621353,-6.46341466904,9.45121955872,1.0,0.0,0.0,0.0,1.0,0.0,0.0,0.0,1.0,-1.62805712891,0.263362164351,9.96466730957,1.0,0.0,0.0,0.0,1.0,0.0,0.0,0.0,1.0
1479745224116051020,217,1479745224114763994,,1.84069359303,-6.00968408585,-108.665733337,0.00108099996578,1.0,0.0,0.0,0.0,1.0,0.0,0.0,0.0,1.0,-2.01219511032,-18.7195110321,4.69512224197,1.0,0.0,0.0,0.0,1.0,0.0,0.0,0.0,1.0,0.0957680664062,-0.77093293457,10.2567599121,1.0,0.0,0.0,0.0,1.0,0.0,0.0,0.0,1.0
1479745224151684828,218,1479745224150252542,,0.982824027538,-6.0587272644,-108.556625366,0.00100499996915,1.0,0.0,0.0,0.0,1.0,0.0,0.0,0.0,1.0,-2.43902444839,-20.9146347046,1.34146344662,1.0,0.0,0.0,0.0,1.0,0.0,0.0,0.0,1.0,-0.134075302102,-0.507570751953,9.88326445312,1.0,0.0,0.0,0.0,1.0,0.0,0.0,0.0,1.0
1479745224189100451,219,1479745224185613799,,0.396321892738,-6.11142921448,-108.211975098,0.00103499996476,1.0,0.0,0.0,0.0,1.0,0.0,0.0,0.0,1.0,-4.57317066193,-1.09756100178,10.3048782349,1.0,0.0,0.0,0.0,1.0,0.0,0.0,0.0,1.0,-0.45489831543,-0.15322890625,10.0221281494,1.0,0.0,0.0,0.0,1.0,0.0,0.0,0.0,1.0
1479745224222961350,220,1479745224220668235,,0.279608339071,-6.10663318634,-107.83669281,0.00322500010952,1.0,0.0,0.0,0.0,1.0,0.0,0.0,0.0,1.0,-2.80487799644,-16.0975608826,8.47560977936,1.0,0.0,0.0,0.0,1.0,0.0,0.0,0.0,1.0,-3.70622416992,0.201112939453,10.1466266357,1.0,0.0,0.0,0.0,1.0,0.0,0.0,0.0,1.0
1479745224257314747,221,1479745224255868190,,-0.258938908577,-6.14367341995,-107.374183655,0.00103399995714,1.0,0.0,0.0,0.0,1.0,0.0,0.0,0.0,1.0,-3.47560977936,-11.7073173523,10.9146347046,1.0,0.0,0.0,0.0,1.0,0.0,0.0,0.0,1.0,1.76213242187,-0.325611425781,10.6350437744,1.0,0.0,0.0,0.0,1.0,0.0,0.0,0.0,1.0
1479745224292060589,222,1479745224290888251,,-0.762808024883,-6.2502913475,-107.031745911,0.0009710000013,1.0,0.0,0.0,0.0,1.0,0.0,0.0,0.0,1.0,-3.53658556938,-20.1219520569,2.43902444839,1.0,0.0,0.0,0.0,1.0,0.0,0.0,0.0,1.0,1.19710090314,-0.215478149414,10.4387192383,1.0,0.0,0.0,0.0,1.0,0.0,0.0,0.0,1.0
1479745224327241014,223,1479745224325991436,,-1.63711941242,-6.32895183563,-106.870063782,0.00152900000103,1.0,0.0,0.0,0.0,1.0,0.0,0.0,0.0,1.0,-3.96341490746,-22.6219520569,-0.426829278469,1.0,0.0,0.0,0.0,1.0,0.0,0.0,0.0,1.0,1.49398183594,-0.526724328702,10.4482960449,1.0,0.0,0.0,0.0,1.0,0.0,0.0,0.0,1.0
1479745224363987109,224,1479745224362492636,,-2.4369187355,-6.43167924881,-106.81174469,0.00106100004632,1.0,0.0,0.0,0.0,1.0,0.0,0.0,0.0,1.0,-2.80487799644,-5.67073154449,-1.8902438879,1.0,0.0,0.0,0.0,1.0,0.0,0.0,0.0,1.0,2.52827695312,-0.651222851562,9.8784760498,1.0,0.0,0.0,0.0,1.0,0.0,0.0,0.0,1.0
1479745224396988480,225,1479745224395342810,,-2.51428341866,-6.41754961014,-106.71245575,0.00100899999961,1.0,0.0,0.0,0.0,1.0,0.0,0.0,0.0,1.0,-3.29268312454,7.74390268326,1.40243899822,1.0,0.0,0.0,0.0,1.0,0.0,0.0,0.0,1.0,0.804451757813,0.201112939453,10.8409451172,1.0,0.0,0.0,0.0,1.0,0.0,0.0,0.0,1.0
1479745224431330053,226,1479745224430023236,,-2.2827808857,-6.55593013763,-106.697875977,0.00105600000825,1.0,0.0,0.0,0.0,1.0,0.0,0.0,0.0,1.0,-3.10975623131,13.5365858078,-2.07317066193,1.0,0.0,0.0,0.0,1.0,0.0,0.0,0.0,1.0,-0.282515795898,-0.900219824219,9.43315395649,1.0,0.0,0.0,0.0,1.0,0.0,0.0,0.0,1.0
1479745224466501155,227,1479745224465458295,,-1.8895149231,-6.57292938232,-106.844230652,0.00134099996649,1.0,0.0,0.0,0.0,1.0,0.0,0.0,0.0,1.0,-2.56097555161,0.304878056049,-1.8292683363,1.0,0.0,0.0,0.0,1.0,0.0,0.0,0.0,1.0,2.15957004359,-0.134075302102,10.5632177246,1.0,0.0,0.0,0.0,1.0,0.0,0.0,0.0,1.0
1479745224504986357,228,1479745224503871778,,-1.62927603722,-6.60384654999,-106.76651001,0.00115000002552,1.0,0.0,0.0,0.0,1.0,0.0,0.0,0.0,1.0,-2.80487799644,7.92682981491,1.8292683363,1.0,0.0,0.0,0.0,1.0,0.0,0.0,0.0,1.0,1.14921679688,-0.387860668945,10.0891657959,1.0,0.0,0.0,0.0,1.0,0.0,0.0,0.0,1.0
1479745224539920480,229,1479745224535566072,,-1.47407329082,-6.66035747528,-106.761230469,0.00097499997355,1.0,0.0,0.0,0.0,1.0,0.0,0.0,0.0,1.0,-4.57317066193,8.71951198578,0.304878056049,1.0,0.0,0.0,0.0,1.0,0.0,0.0,0.0,1.0,0.574608398438,-0.584185168546,9.93593688965,1.0,0.0,0.0,0.0,1.0,0.0,0.0,0.0,1.0
1479745224572368677,230,1479745224570884933,,-1.21236455441,-6.73760128021,-106.721099854,0.000966000021435,1.0,0.0,0.0,0.0,1.0,0.0,0.0,0.0,1.0,-4.39024400711,6.40243911743,1.76829278469,1.0,0.0,0.0,0.0,1.0,0.0,0.0,0.0,1.0,0.493205541992,-0.397437475586,10.3046439453,1.0,0.0,0.0,0.0,1.0,0.0,0.0,0.0,1.0
1479745224607258373,231,1479745224606056191,,-0.953387260437,-6.83857774734,-106.687057495,0.00100299995393,1.0,0.0,0.0,0.0,1.0,0.0,0.0,0.0,1.0,-3.47560977936,3.59756112099,-3.35365867615,1.0,0.0,0.0,0.0,1.0,0.0,0.0,0.0,1.0,-0.076614453125,-0.421379492187,10.7403886475,1.0,0.0,0.0,0.0,1.0,0.0,0.0,0.0,1.0
1479745224644383893,232,1479745224643454418,,-1.00093364716,-6.97765398026,-106.733306885,0.00572100002319,1.0,0.0,0.0,0.0,1.0,0.0,0.0,0.0,1.0,-9.32926845551,-1.2195122242,5.30487823486,1.0,0.0,0.0,0.0,1.0,0.0,0.0,0.0,1.0,-0.162805712891,0.167594116211,10.1131078125,1.0,0.0,0.0,0.0,1.0,0.0,0.0,0.0,1.0
1479745224679225986,233,1479745224677475472,,-1.10123586655,-7.16818618774,-106.475158691,0.000964000006206,1.0,0.0,0.0,0.0,1.0,0.0,0.0,0.0,1.0,-3.53658556938,-3.59756112099,1.2195122242,1.0,0.0,0.0,0.0,1.0,0.0,0.0,0.0,1.0,0.804451757813,-0.684741674805,10.2663367187,1.0,0.0,0.0,0.0,1.0,0.0,0.0,0.0,1.0
1479745224713472508,234,1479745224712351575,,-1.38089931011,-7.24659633636,-106.512390137,0.0012300000526,1.0,0.0,0.0,0.0,1.0,0.0,0.0,0.0,1.0,-4.87804889679,-16.158536911,-3.17073178291,1.0,0.0,0.0,0.0,1.0,0.0,0.0,0.0,1.0,-0.742202514648,0.603338854892,10.4674496582,1.0,0.0,0.0,0.0,1.0,0.0,0.0,0.0,1.0
1479745224748428090,235,1479745224747524864,,-1.806661129,-7.24164676666,-106.25403595,0.000967999978457,1.0,0.0,0.0,0.0,1.0,0.0,0.0,0.0,1.0,-2.37804889679,-8.23170757294,3.53658556938,1.0,0.0,0.0,0.0,1.0,0.0,0.0,0.0,1.0,1.17315874041,-0.277727392578,10.4387192383,1.0,0.0,0.0,0.0,1.0,0.0,0.0,0.0,1.0
1479745224783857211,236,1479745224782425446,,-2.28994631767,-7.31857728958,-106.160140991,0.00129499996547,1.0,0.0,0.0,0.0,1.0,0.0,0.0,0.0,1.0,-3.23170733452,-2.25609779358,2.62195134163,1.0,0.0,0.0,0.0,1.0,0.0,0.0,0.0,1.0,-0.885854614258,-0.962469067383,9.73003554687,1.0,0.0,0.0,0.0,1.0,0.0,0.0,0.0,1.0
1479745224819356905,237,1479745224817664776,,-2.43055152893,-7.41998147964,-106.091423035,0.000996000017039,1.0,0.0,0.0,0.0,1.0,0.0,0.0,0.0,1.0,-3.41463422775,-25.1219520569,-5.18292713165,1.0,0.0,0.0,0.0,1.0,0.0,0.0,0.0,1.0,-4.51067592773,-0.742202514648,9.5193463853,1.0,0.0,0.0,0.0,1.0,0.0,0.0,0.0,1.0
1479745224853761603,238,1479745224852647129,,-3.06617760658,-7.43470907211,-105.859680176,0.00168400001712,1.0,0.0,0.0,0.0,1.0,0.0,0.0,0.0,1.0,-2.86585378647,-11.1585359573,8.71951198578,1.0,0.0,0.0,0.0,1.0,0.0,0.0,0.0,1.0,2.37504819301,-0.0957680664062,9.68693991699,1.0,0.0,0.0,0.0,1.0,0.0,0.0,0.0,1.0
1479745224889151558,239,1479745224887402711,,-3.53836321831,-7.43488502502,-105.65801239,0.00110100000165,1.0,0.0,0.0,0.0,1.0,0.0,0.0,0.0,1.0,-2.25609779358,-0.18292683363,2.86585378647,1.0,0.0,0.0,0.0,1.0,0.0,0.0,0.0,1.0,1.09654436035,-0.905008227539,9.20331118164,1.0,0.0,0.0,0.0,1.0,0.0,0.0,0.0,1.0
1479745224924299274,240,1479745224922503761,,-3.68987965584,-7.57144594193,-105.655189514,0.00144300004467,1.0,0.0,0.0,0.0,1.0,0.0,0.0,0.0,1.0,-5.0,-2.80487799644,5.12195110321,1.0,0.0,0.0,0.0,1.0,0.0,0.0,0.0,1.0,0.162805712891,-1.32159931641,9.8545340332,1.0,0.0,0.0,0.0,1.0,0.0,0.0,0.0,1.0
1479745224958822826,241,1479745224957254604,,-3.89543199539,-7.52136039734,-105.454078674,0.000987999956124,1.0,0.0,0.0,0.0,1.0,0.0,0.0,0.0,1.0,-2.62195134163,-1.46341466904,0.975609779358,1.0,0.0,0.0,0.0,1.0,0.0,0.0,0.0,1.0,2.23139594727,0.100556469727,10.5967365479,1.0,0.0,0.0,0.0,1.0,0.0,0.0,0.0,1.0
1479745224993866012,242,1479745224992931641,,-3.90183663368,-7.54081487656,-105.441520691,0.0011190000223,1.0,0.0,0.0,0.0,1.0,0.0,0.0,0.0,1.0,-0.243902444839,6.52439069748,3.71951246262,1.0,0.0,0.0,0.0,1.0,0.0,0.0,0.0,1.0,0.622492431641,-0.818816967773,10.1753570557,1.0,0.0,0.0,0.0,1.0,0.0,0.0,0.0,1.0
1479745225028757895,243,1479745225027841285,,-3.71679401398,-7.57868146896,-105.339073181,0.000962999998592,1.0,0.0,0.0,0.0,1.0,0.0,0.0,0.0,1.0,-1.64634156227,16.0975608826,3.04878044128,1.0,0.0,0.0,0.0,1.0,0.0,0.0,0.0,1.0,2.85388837891,-0.665588061523,9.96466730957,1.0,0.0,0.0,0.0,1.0,0.0,0.0,0.0,1.0
1479745225064785191,244,1479745225063936237,,-3.19029951096,-7.55682659149,-105.473472595,0.00136999995448,1.0,0.0,0.0,0.0,1.0,0.0,0.0,0.0,1.0,-2.37804889679,10.7317075729,-2.31707310677,1.0,0.0,0.0,0.0,1.0,0.0,0.0,0.0,1.0,0.421379492187,-0.641646044922,9.89284125977,1.0,0.0,0.0,0.0,1.0,0.0,0.0,0.0,1.0
1479745225099689367,245,1479745225098196925,,-2.57110023499,-7.46330165863,-105.431350708,0.00101200002246,1.0,0.0,0.0,0.0,1.0,0.0,0.0,0.0,1.0,-0.853658556938,0.365853667259,-0.365853667259,1.0,0.0,0.0,0.0,1.0,0.0,0.0,0.0,1.0,-1.07260241682,0.0,10.0412817627,1.0,0.0,0.0,0.0,1.0,0.0,0.0,0.0,1.0
1479745225133934378,246,1479745225133057611,,-2.45617651939,-7.42781925201,-105.357467651,0.00113900005817,1.0,0.0,0.0,0.0,1.0,0.0,0.0,0.0,1.0,0.487804889679,4.51219558716,4.14634132385,1.0,0.0,0.0,0.0,1.0,0.0,0.0,0.0,1.0,1.23061965332,-0.502782348633,9.64863327495,1.0,0.0,0.0,0.0,1.0,0.0,0.0,0.0,1.0
1479745225168895116,247,1479745225168039130,,-2.3644194603,-7.47027540207,-105.299545288,0.00109000003431,1.0,0.0,0.0,0.0,1.0,0.0,0.0,0.0,1.0,-2.86585378647,4.87804889679,0.0,1.0,0.0,0.0,0.0,1.0,0.0,0.0,0.0,1.0,0.220266552734,-1.14442839355,9.42357714985,1.0,0.0,0.0,0.0,1.0,0.0,0.0,0.0,1.0
1479745225205654596,248,1479745225204802621,,-2.22742009163,-7.46868419647,-105.241004944,0.00598599994555,1.0,0.0,0.0,0.0,1.0,0.0,0.0,0.0,1.0,-2.68292689323,4.2682929039,5.42682933807,1.0,0.0,0.0,0.0,1.0,0.0,0.0,0.0,1.0,0.15801730957,-0.0478840332031,9.7827079834,1.0,0.0,0.0,0.0,1.0,0.0,0.0,0.0,1.0
1479745225243964122,249,1479745225242137724,,-2.08927774429,-7.40126895905,-105.18309021,0.0033650000114,1.0,0.0,0.0,0.0,1.0,0.0,0.0,0.0,1.0,-1.70731711388,5.73170757294,-2.98780488968,1.0,0.0,0.0,0.0,1.0,0.0,0.0,0.0,1.0,0.780509741211,-0.665588061523,9.81622680664,1.0,0.0,0.0,0.0,1.0,0.0,0.0,0.0,1.0
1479745225278580122,250,1479745225276671745,,-1.76819097996,-7.43206453323,-105.235809326,0.00106899999082,1.0,0.0,0.0,0.0,1.0,0.0,0.0,0.0,1.0,-2.68292689323,-10.7317075729,-2.13414645195,1.0,0.0,0.0,0.0,1.0,0.0,0.0,0.0,1.0,-3.1364041748,-0.545877978516,9.94551369629,1.0,0.0,0.0,0.0,1.0,0.0,0.0,0.0,1.0
1479745225313020706,251,1479745225312023835,,-2.08437585831,-7.40799379349,-105.019607544,0.00118000002112,1.0,0.0,0.0,0.0,1.0,0.0,0.0,0.0,1.0,-1.76829278469,-1.64634156227,7.19512224197,1.0,0.0,0.0,0.0,1.0,0.0,0.0,0.0,1.0,2.29364519043,-0.186747729492,9.84016882324,1.0,0.0,0.0,0.0,1.0,0.0,0.0,0.0,1.0
1479745225347588893,252,1479745225346673064,,-2.26587820053,-7.38798809052,-104.926712036,0.00104999996256,1.0,0.0,0.0,0.0,1.0,0.0,0.0,0.0,1.0,-2.56097555161,-3.23170733452,-6.0365858078,1.0,0.0,0.0,0.0,1.0,0.0,0.0,0.0,1.0,0.976834277344,-1.00556469727,9.90241806641,1.0,0.0,0.0,0.0,1.0,0.0,0.0,0.0,1.0
1479745225383915198,253,1479745225382787911,,-2.3330578804,-7.52382659912,-104.903518677,0.00142400001641,1.0,0.0,0.0,0.0,1.0,0.0,0.0,0.0,1.0,-2.13414645195,-4.75609779358,2.92682933807,1.0,0.0,0.0,0.0,1.0,0.0,0.0,0.0,1.0,-0.292092584273,-0.718260498047,10.3477395752,1.0,0.0,0.0,0.0,1.0,0.0,0.0,0.0,1.0
1479745225420955771,254,1479745225417433234,,-2.63138651848,-7.43789720535,-104.722465515,0.000988999963738,1.0,0.0,0.0,0.0,1.0,0.0,0.0,0.0,1.0,-2.68292689323,-6.46341466904,1.15853655338,1.0,0.0,0.0,0.0,1.0,0.0,0.0,0.0,1.0,1.22583125,-0.100556469727,10.0987426025,1.0,0.0,0.0,0.0,1.0,0.0,0.0,0.0,1.0
1479745225453327665,255,1479745225452290170,,-2.87845754623,-7.4475646019,-104.647926331,0.00120599998627,1.0,0.0,0.0,0.0,1.0,0.0,0.0,0.0,1.0,-2.5,-5.67073154449,2.13414645195,1.0,0.0,0.0,0.0,1.0,0.0,0.0,0.0,1.0,0.799663354492,-1.00077629395,10.314220752,1.0,0.0,0.0,0.0,1.0,0.0,0.0,0.0,1.0
1479745225488587673,256,1479745225487719187,,-3.13863277435,-7.52612352371,-104.504058838,0.00101100001484,1.0,0.0,0.0,0.0,1.0,0.0,0.0,0.0,1.0,-4.14634132385,-13.1097564697,-1.2804877758,1.0,0.0,0.0,0.0,1.0,0.0,0.0,0.0,1.0,2.12605122035,-0.272938989258,11.0899420898,1.0,0.0,0.0,0.0,1.0,0.0,0.0,0.0,1.0
1479745225524738405,257,1479745225523702889,,-3.47111463547,-7.49292850494,-104.346626282,0.00153000000864,1.0,0.0,0.0,0.0,1.0,0.0,0.0,0.0,1.0,-0.365853667259,-0.18292683363,-1.8902438879,1.0,0.0,0.0,0.0,1.0,0.0,0.0,0.0,1.0,2.29843359375,-0.445321508789,10.9845972168,1.0,0.0,0.0,0.0,1.0,0.0,0.0,0.0,1.0
1479745225560954346,258,1479745225558837480,,-3.56263971329,-7.57479000092,-104.355285645,0.00102099997457,1.0,0.0,0.0,0.0,1.0,0.0,0.0,0.0,1.0,-2.37804889679,-2.31707310677,5.36585378647,1.0,0.0,0.0,0.0,1.0,0.0,0.0,0.0,1.0,0.569819995117,-0.92416184082,9.93593688965,1.0,0.0,0.0,0.0,1.0,0.0,0.0,0.0,1.0
1479745225598126637,259,1479745225593737802,,-3.71225857735,-7.5504693985,-104.133766174,0.00115400005598,1.0,0.0,0.0,0.0,1.0,0.0,0.0,0.0,1.0,-2.74390244484,-0.487804889679,0.365853667259,1.0,0.0,0.0,0.0,1.0,0.0,0.0,0.0,1.0,2.35110588414,-0.612915625,10.5344873047,1.0,0.0,0.0,0.0,1.0,0.0,0.0,0.0,1.0
1479745225629772493,260,1479745225628853435,,-3.67308044434,-7.58074569702,-104.093887329,0.000964000006206,1.0,0.0,0.0,0.0,1.0,0.0,0.0,0.0,1.0,-0.853658556938,10.4268293381,3.35365867615,1.0,0.0,0.0,0.0,1.0,0.0,0.0,0.0,1.0,1.36948334961,-0.928950244141,10.3860468018,1.0,0.0,0.0,0.0,1.0,0.0,0.0,0.0,1.0
1479745225664786304,261,1479745225663831568,,-3.2920627594,-7.59658670425,-104.155654907,0.00150300003588,1.0,0.0,0.0,0.0,1.0,0.0,0.0,0.0,1.0,-0.426829278469,-3.04878044128,-6.58536624908,1.0,0.0,0.0,0.0,1.0,0.0,0.0,0.0,1.0,2.22660754395,-0.746990917969,10.3860468018,1.0,0.0,0.0,0.0,1.0,0.0,0.0,0.0,1.0
1479745225703203225,262,1479745225699362616,,-3.06086111069,-7.52157402039,-104.06552887,0.00104999996256,1.0,0.0,0.0,0.0,1.0,0.0,0.0,0.0,1.0,1.76829278469,11.8292684555,5.0,1.0,0.0,0.0,0.0,1.0,0.0,0.0,0.0,1.0,1.51313544922,0.387860668945,10.0700121826,1.0,0.0,0.0,0.0,1.0,0.0,0.0,0.0,1.0
1479745225735172673,263,1479745225734115386,,-2.87460184097,-7.49834728241,-104.052391052,0.00103899999522,1.0,0.0,0.0,0.0,1.0,0.0,0.0,0.0,1.0,-1.09756100178,13.2926826477,0.0,1.0,0.0,0.0,0.0,1.0,0.0,0.0,0.0,1.0,1.37427175293,-1.11569797363,9.41400034321,1.0,0.0,0.0,0.0,1.0,0.0,0.0,0.0,1.0
1479745225770364764,264,1479745225769116540,,-2.37148880959,-7.5232462883,-104.030754089,0.00105199997779,1.0,0.0,0.0,0.0,1.0,0.0,0.0,0.0,1.0,-2.62195134163,10.7926826477,-1.46341466904,1.0,0.0,0.0,0.0,1.0,0.0,0.0,0.0,1.0,-0.727837304687,-0.76614453125,9.68693991699,1.0,0.0,0.0,0.0,1.0,0.0,0.0,0.0,1.0
1479745225805477585,265,1479745225804325767,,-2.14954543114,-7.48007106781,-104.095787048,0.00156100001186,1.0,0.0,0.0,0.0,1.0,0.0,0.0,0.0,1.0,-3.59756112099,4.20731735229,7.86585378647,1.0,0.0,0.0,0.0,1.0,0.0,0.0,0.0,1.0,0.502782348633,0.325611425781,9.65821008159,1.0,0.0,0.0,0.0,1.0,0.0,0.0,0.0,1.0
1479745225840751759,266,1479745225839076245,,-2.06210279465,-7.39005041122,-103.958831787,0.00107100000605,1.0,0.0,0.0,0.0,1.0,0.0,0.0,0.0,1.0,-2.68292689323,0.0,0.609756112099,1.0,0.0,0.0,0.0,1.0,0.0,0.0,0.0,1.0,1.40300217285,-0.402225878906,9.90720646973,1.0,0.0,0.0,0.0,1.0,0.0,0.0,0.0,1.0
1479745225874634636,267,1479745225873687036,,-2.01998710632,-7.44153594971,-103.876312256,0.0011419999646,1.0,0.0,0.0,0.0,1.0,0.0,0.0,0.0,1.0,-1.70731711388,8.41463470459,3.53658556938,1.0,0.0,0.0,0.0,1.0,0.0,0.0,0.0,1.0,1.86747729492,-1.31681091309,10.0795889893,1.0,0.0,0.0,0.0,1.0,0.0,0.0,0.0,1.0
1479745225909524958,268,1479745225908524962,,-1.86886775494,-7.48650312424,-103.897171021,0.00107700005174,1.0,0.0,0.0,0.0,1.0,0.0,0.0,0.0,1.0,-2.01219511032,1.70731711388,1.64634156227,1.0,0.0,0.0,0.0,1.0,0.0,0.0,0.0,1.0,0.0718260498047,0.320823022461,10.3956236084,1.0,0.0,0.0,0.0,1.0,0.0,0.0,0.0,1.0
1479745225947025320,269,1479745225945407931,,-1.81990146637,-7.37028217316,-103.812896729,0.00241099996492,1.0,0.0,0.0,0.0,1.0,0.0,0.0,0.0,1.0,-3.59756112099,-15.6097564697,-0.670731723309,1.0,0.0,0.0,0.0,1.0,0.0,0.0,0.0,1.0,1.52750065918,-0.282515795898,10.0317049561,1.0,0.0,0.0,0.0,1.0,0.0,0.0,0.0,1.0
1479745225983162720,270,1479745225982275953,,-2.25481176376,-7.36337661743,-103.554168701,0.00123199995141,1.0,0.0,0.0,0.0,1.0,0.0,0.0,0.0,1.0,-0.914634168148,5.54878091812,9.45121955872,1.0,0.0,0.0,0.0,1.0,0.0,0.0,0.0,1.0,2.94486804199,-0.569819995117,10.5680061279,1.0,0.0,0.0,0.0,1.0,0.0,0.0,0.0,1.0
1479745226016484194,271,1479745226015436386,,-2.40312695503,-7.45741415024,-103.501152039,0.001007999992,1.0,0.0,0.0,0.0,1.0,0.0,0.0,0.0,1.0,-3.17073178291,-5.91463422775,-5.12195110321,1.0,0.0,0.0,0.0,1.0,0.0,0.0,0.0,1.0,-0.0909796630859,-1.6041151123,10.1849338623,1.0,0.0,0.0,0.0,1.0,0.0,0.0,0.0,1.0
1479745226050988996,272,1479745226050037125,,-2.53146958351,-7.51139640808,-103.410766602,0.000972000008915,1.0,0.0,0.0,0.0,1.0,0.0,0.0,0.0,1.0,-3.35365867615,-7.25609779358,5.30487823486,1.0,0.0,0.0,0.0,1.0,0.0,0.0,0.0,1.0,-0.976834277344,0.0718260498047,10.4961800781,1.0,0.0,0.0,0.0,1.0,0.0,0.0,0.0,1.0
1479745226086260305,273,1479745226085390257,,-2.99390792847,-7.44281196594,-103.253982544,0.00125900004059,1.0,0.0,0.0,0.0,1.0,0.0,0.0,0.0,1.0,-3.23170733452,-12.0731716156,4.2682929039,1.0,0.0,0.0,0.0,1.0,0.0,0.0,0.0,1.0,2.11168571813,-0.0718260498047,10.1753570557,1.0,0.0,0.0,0.0,1.0,0.0,0.0,0.0,1.0
1479745226121666250,274,1479745226119800737,,-3.30556058884,-7.43851280212,-103.028823853,0.00127799995244,1.0,0.0,0.0,0.0,1.0,0.0,0.0,0.0,1.0,-0.914634168148,0.365853667259,-0.243902444839,1.0,0.0,0.0,0.0,1.0,0.0,0.0,0.0,1.0,2.40856701625,-0.794874951172,10.5105452881,1.0,0.0,0.0,0.0,1.0,0.0,0.0,0.0,1.0
1479745226155507930,275,1479745226154434965,,-3.2881193161,-7.61307096481,-103.037963867,0.00105199997779,1.0,0.0,0.0,0.0,1.0,0.0,0.0,0.0,1.0,-0.731707334518,-4.20731735229,-1.70731711388,1.0,0.0,0.0,0.0,1.0,0.0,0.0,0.0,1.0,0.287304199219,-0.833182177734,9.70130512695,1.0,0.0,0.0,0.0,1.0,0.0,0.0,0.0,1.0
1479745226190688719,276,1479745226189580182,,-3.40022110939,-7.56066846848,-102.9376297,0.00114399997983,1.0,0.0,0.0,0.0,1.0,0.0,0.0,0.0,1.0,-3.90243911743,2.5,0.426829278469,1.0,0.0,0.0,0.0,1.0,0.0,0.0,0.0,1.0,2.43250888672,0.536301208408,9.8784760498,1.0,0.0,0.0,0.0,1.0,0.0,0.0,0.0,1.0
1479745226225053782,277,1479745226224130609,,-3.37611341476,-7.48346376419,-102.923316956,0.00136600004043,1.0,0.0,0.0,0.0,1.0,0.0,0.0,0.0,1.0,-1.09756100178,2.80487799644,-0.670731723309,1.0,0.0,0.0,0.0,1.0,0.0,0.0,0.0,1.0,0.933738647461,-0.962469067383,10.5488525146,1.0,0.0,0.0,0.0,1.0,0.0,0.0,0.0,1.0
1479745226261964511,278,1479745226259303012,,-3.17545127869,-7.53461027145,-102.81703949,0.00109100004192,1.0,0.0,0.0,0.0,1.0,0.0,0.0,0.0,1.0,-1.95121955872,-6.82926845551,-1.76829278469,1.0,0.0,0.0,0.0,1.0,0.0,0.0,0.0,1.0,-0.339976635742,-0.852335791016,10.4243540283,1.0,0.0,0.0,0.0,1.0,0.0,0.0,0.0,1.0
1479745226305760681,279,1479745226293949949,,-3.38183426857,-7.58092594147,-102.717002869,0.0012080000015,1.0,0.0,0.0,0.0,1.0,0.0,0.0,0.0,1.0,0.426829278469,6.40243911743,5.54878091812,1.0,0.0,0.0,0.0,1.0,0.0,0.0,0.0,1.0,4.40533105469,0.0191536132812,10.2184526855,1.0,0.0,0.0,0.0,1.0,0.0,0.0,0.0,1.0
1479745226333745771,280,1479745226332323798,,-2.96144199371,-7.55111122131,-102.732398987,0.0039229998365,1.0,0.0,0.0,0.0,1.0,0.0,0.0,0.0,1.0,-1.64634156227,11.7682924271,-4.45121955872,1.0,0.0,0.0,0.0,1.0,0.0,0.0,0.0,1.0,-0.488417138672,-0.938527050781,9.93114848633,1.0,0.0,0.0,0.0,1.0,0.0,0.0,0.0,1.0
1479745226368351145,281,1479745226367129588,,-2.5082821846,-7.60823392868,-102.733932495,0.00135399994906,1.0,0.0,0.0,0.0,1.0,0.0,0.0,0.0,1.0,-1.70731711388,9.69512176514,6.64634132385,1.0,0.0,0.0,0.0,1.0,0.0,0.0,0.0,1.0,-0.45489831543,-0.828393774414,9.91199487305,1.0,0.0,0.0,0.0,1.0,0.0,0.0,0.0,1.0
1479745226404004589,282,1479745226401957879,,-2.39814853668,-7.5400724411,-102.683532715,0.00145099998917,1.0,0.0,0.0,0.0,1.0,0.0,0.0,0.0,1.0,-4.08536577225,0.609756112099,4.93902444839,1.0,0.0,0.0,0.0,1.0,0.0,0.0,0.0,1.0,1.20188930646,0.15322890625,9.76355437012,1.0,0.0,0.0,0.0,1.0,0.0,0.0,0.0,1.0
1479745226441287244,283,1479745226436311692,,-2.29358410835,-7.47400665283,-102.527191162,0.000957000011113,1.0,0.0,0.0,0.0,1.0,0.0,0.0,0.0,1.0,-1.40243899822,7.98780536652,2.25609779358,1.0,0.0,0.0,0.0,1.0,0.0,0.0,0.0,1.0,1.43652099609,-0.584185168546,10.2088758789,1.0,0.0,0.0,0.0,1.0,0.0,0.0,0.0,1.0
1479745226472422894,284,1479745226470871338,,-2.14097976685,-7.55981636047,-102.658470154,0.000954999995884,1.0,0.0,0.0,0.0,1.0,0.0,0.0,0.0,1.0,-2.74390244484,-7.43902492523,-5.42682933807,1.0,0.0,0.0,0.0,1.0,0.0,0.0,0.0,1.0,-0.876277807617,-1.02471831055,10.2232410889,1.0,0.0,0.0,0.0,1.0,0.0,0.0,0.0,1.0
1479745226506979310,285,1479745226505771867,,-2.21400117874,-7.51413822174,-102.44393158,0.00101699994411,1.0,0.0,0.0,0.0,1.0,0.0,0.0,0.0,1.0,-2.5,-0.243902444839,2.19512200356,1.0,0.0,0.0,0.0,1.0,0.0,0.0,0.0,1.0,0.9193734375,0.665588061523,10.433930835,1.0,0.0,0.0,0.0,1.0,0.0,0.0,0.0,1.0
1479745226543201605,286,1479745226540898959,,-2.38792181015,-7.49193239212,-102.387641907,0.00130000000354,1.0,0.0,0.0,0.0,1.0,0.0,0.0,0.0,1.0,-0.18292683363,10.6707315445,3.59756112099,1.0,0.0,0.0,0.0,1.0,0.0,0.0,0.0,1.0,0.402225878906,-1.10133276367,9.82580361328,1.0,0.0,0.0,0.0,1.0,0.0,0.0,0.0,1.0
1479745226578429165,287,1479745226575830582,,-2.03623223305,-7.53803014755,-102.381744385,0.000953999988269,1.0,0.0,0.0,0.0,1.0,0.0,0.0,0.0,1.0,-3.41463422775,-8.59756088257,-3.96341490746,1.0,0.0,0.0,0.0,1.0,0.0,0.0,0.0,1.0,-5.22414802246,-0.852335791016,9.08838950195,1.0,0.0,0.0,0.0,1.0,0.0,0.0,0.0,1.0
1479745226612437927,288,1479745226611005225,,-2.25474309921,-7.59442806244,-102.254211426,0.000954999995884,1.0,0.0,0.0,0.0,1.0,0.0,0.0,0.0,1.0,-3.41463422775,0.12195122242,12.0731716156,1.0,0.0,0.0,0.0,1.0,0.0,0.0,0.0,1.0,4.17069899973,0.0909796630859,10.0364933594,1.0,0.0,0.0,0.0,1.0,0.0,0.0,0.0,1.0
1479745226647849653,289,1479745226645990859,,-2.33654165268,-7.47969532013,-102.126304626,0.000981000019237,1.0,0.0,0.0,0.0,1.0,0.0,0.0,0.0,1.0,-2.13414645195,2.25609779358,-3.35365867615,1.0,0.0,0.0,0.0,1.0,0.0,0.0,0.0,1.0,0.665588061523,-1.09175595703,10.180145459,1.0,0.0,0.0,0.0,1.0,0.0,0.0,0.0,1.0
1479745226685212047,290,1479745226681980238,,-2.1950969696,-7.54561090469,-102.132347107,0.00136700004805,1.0,0.0,0.0,0.0,1.0,0.0,0.0,0.0,1.0,-2.62195134163,-1.64634156227,1.76829278469,1.0,0.0,0.0,0.0,1.0,0.0,0.0,0.0,1.0,0.521935925381,-0.905008227539,10.3429511719,1.0,0.0,0.0,0.0,1.0,0.0,0.0,0.0,1.0
1479745226718325553,291,1479745226715831189,,-2.37006139755,-7.55926418304,-102.017974854,0.000958000018727,1.0,0.0,0.0,0.0,1.0,0.0,0.0,0.0,1.0,-3.41463422775,-8.29268264771,1.2804877758,1.0,0.0,0.0,0.0,1.0,0.0,0.0,0.0,1.0,0.76614453125,0.335188232422,10.5680061279,1.0,0.0,0.0,0.0,1.0,0.0,0.0,0.0,1.0
1479745226751792756,292,1479745226750384532,,-2.74488973618,-7.49194717407,-101.834602356,0.000962999998592,1.0,0.0,0.0,0.0,1.0,0.0,0.0,0.0,1.0,-1.34146344662,-5.97560977936,2.98780488968,1.0,0.0,0.0,0.0,1.0,0.0,0.0,0.0,1.0,2.18830031738,-0.871489404297,10.6637741943,1.0,0.0,0.0,0.0,1.0,0.0,0.0,0.0,1.0
1479745226786445891,293,1479745226785520009,,-2.91567230225,-7.58779907227,-101.71421814,0.0010229999898,1.0,0.0,0.0,0.0,1.0,0.0,0.0,0.0,1.0,-1.15853655338,5.18292713165,3.04878044128,1.0,0.0,0.0,0.0,1.0,0.0,0.0,0.0,1.0,0.861912597656,-0.976834277344,10.3621047852,1.0,0.0,0.0,0.0,1.0,0.0,0.0,0.0,1.0
1479745226824133127,294,1479745226821946626,,-2.80668354034,-7.6777176857,-101.719078064,0.00105600000825,1.0,0.0,0.0,0.0,1.0,0.0,0.0,0.0,1.0,-1.64634156227,-3.41463422775,-2.74390244484,1.0,0.0,0.0,0.0,1.0,0.0,0.0,0.0,1.0,0.287304199219,-0.895431420898,10.2088758789,1.0,0.0,0.0,0.0,1.0,0.0,0.0,0.0,1.0
1479745226860232714,295,1479745226855494609,,-2.72114992142,-7.57708311081,-101.63067627,0.000973000016529,1.0,0.0,0.0,0.0,1.0,0.0,0.0,0.0,1.0,-1.34146344662,-4.51219558716,0.731707334518,1.0,0.0,0.0,0.0,1.0,0.0,0.0,0.0,1.0,-1.12048637695,0.636857641602,9.99818613281,1.0,0.0,0.0,0.0,1.0,0.0,0.0,0.0,1.0
1479745226892142996,296,1479745226890348368,,-2.89700317383,-7.51023387909,-101.531997681,0.0010150000453,1.0,0.0,0.0,0.0,1.0,0.0,0.0,0.0,1.0,-0.914634168148,0.0,4.51219558716,1.0,0.0,0.0,0.0,1.0,0.0,0.0,0.0,1.0,1.96803376465,-0.833182177734,9.86889924316,1.0,0.0,0.0,0.0,1.0,0.0,0.0,0.0,1.0
1479745226926341029,297,1479745226925014368,,-2.96364593506,-7.56400775909,-101.437553406,0.00104700005613,1.0,0.0,0.0,0.0,1.0,0.0,0.0,0.0,1.0,-4.45121955872,0.487804889679,-1.8292683363,1.0,0.0,0.0,0.0,1.0,0.0,0.0,0.0,1.0,1.19710090314,-1.2497732666,9.78749638672,1.0,0.0,0.0,0.0,1.0,0.0,0.0,0.0,1.0
1479745226965189146,298,1479745226964061599,,-2.89131975174,-7.60917377472,-101.35962677,0.00302900001407,1.0,0.0,0.0,0.0,1.0,0.0,0.0,0.0,1.0,-2.01219511032,9.26829242706,-1.34146344662,1.0,0.0,0.0,0.0,1.0,0.0,0.0,0.0,1.0,0.665588061523,-0.646434448242,10.7739074707,1.0,0.0,0.0,0.0,1.0,0.0,0.0,0.0,1.0
1479745227004830906,299,1479745227003384922,,-2.52797007561,-7.5502166748,-101.432411194,0.0060100001283,1.0,0.0,0.0,0.0,1.0,0.0,0.0,0.0,1.0,-0.853658556938,8.35365867615,1.58536589146,1.0,0.0,0.0,0.0,1.0,0.0,0.0,0.0,1.0,1.04387185076,-0.0814028564453,10.285490332,1.0,0.0,0.0,0.0,1.0,0.0,0.0,0.0,1.0
1479745227041811531,300,1479745227038180869,,-2.24063634872,-7.49201011658,-101.337081909,0.00113800005056,1.0,0.0,0.0,0.0,1.0,0.0,0.0,0.0,1.0,-1.52439022064,1.95121955872,1.2195122242,1.0,0.0,0.0,0.0,1.0,0.0,0.0,0.0,1.0,0.373495458984,-0.742202514648,10.3956236084,1.0,0.0,0.0,0.0,1.0,0.0,0.0,0.0,1.0
1479745227074377435,301,1479745227073117336,,-2.17046785355,-7.53930234909,-101.273727417,0.00183299998753,1.0,0.0,0.0,0.0,1.0,0.0,0.0,0.0,1.0,-1.52439022064,1.34146344662,1.52439022064,1.0,0.0,0.0,0.0,1.0,0.0,0.0,0.0,1.0,0.603338854892,-0.493205541992,10.060435376,1.0,0.0,0.0,0.0,1.0,0.0,0.0,0.0,1.0
1479745227108706509,302,1479745227107451046,,-2.16724300385,-7.51039409637,-101.220321655,0.00101999996696,1.0,0.0,0.0,0.0,1.0,0.0,0.0,0.0,1.0,-2.86585378647,0.12195122242,2.13414645195,1.0,0.0,0.0,0.0,1.0,0.0,0.0,0.0,1.0,0.450109912109,-0.445321508789,10.0125513428,1.0,0.0,0.0,0.0,1.0,0.0,0.0,0.0,1.0
1479745227145986456,303,1479745227145134272,,-2.25168061256,-7.48351335526,-101.107139587,0.0039889998734,1.0,0.0,0.0,0.0,1.0,0.0,0.0,0.0,1.0,-3.35365867615,-4.14634132385,0.731707334518,1.0,0.0,0.0,0.0,1.0,0.0,0.0,0.0,1.0,0.828393774414,-0.679953271484,10.1370498291,1.0,0.0,0.0,0.0,1.0,0.0,0.0,0.0,1.0
1479745227180973443,304,1479745227177665228,,-2.39627790451,-7.53600502014,-101.010032654,0.00108700001147,1.0,0.0,0.0,0.0,1.0,0.0,0.0,0.0,1.0,-2.37804889679,-4.57317066193,2.43902444839,1.0,0.0,0.0,0.0,1.0,0.0,0.0,0.0,1.0,0.694318481445,-0.622492431641,10.1274730225,1.0,0.0,0.0,0.0,1.0,0.0,0.0,0.0,1.0
1479745227213622628,305,1479745227212662372,,-2.61207890511,-7.51451158524,-100.905807495,0.00119199999608,1.0,0.0,0.0,0.0,1.0,0.0,0.0,0.0,1.0,-1.8902438879,-4.2682929039,1.15853655338,1.0,0.0,0.0,0.0,1.0,0.0,0.0,0.0,1.0,0.962469067383,-0.407014282227,10.0556469727,1.0,0.0,0.0,0.0,1.0,0.0,0.0,0.0,1.0
1479745227248313003,306,1479745227247446288,,-2.76659107208,-7.53429603577,-100.805885315,0.000975999981165,1.0,0.0,0.0,0.0,1.0,0.0,0.0,0.0,1.0,-2.13414645195,-3.29268312454,1.95121955872,1.0,0.0,0.0,0.0,1.0,0.0,0.0,0.0,1.0,0.857124194336,-0.60812722168,10.1753570557,1.0,0.0,0.0,0.0,1.0,0.0,0.0,0.0,1.0
1479745227283253949,307,1479745227282408640,,-2.93516254425,-7.55594730377,-100.713523865,0.0014159999555,1.0,0.0,0.0,0.0,1.0,0.0,0.0,0.0,1.0,-2.43902444839,-2.62195134163,0.853658556938,1.0,0.0,0.0,0.0,1.0,0.0,0.0,0.0,1.0,0.962469067383,-0.560243188477,10.0987426025,1.0,0.0,0.0,0.0,1.0,0.0,0.0,0.0,1.0
1479745227319705201,308,1479745227317168910,,-3.0988047123,-7.55313253403,-100.638969421,0.000959000026342,1.0,0.0,0.0,0.0,1.0,0.0,0.0,0.0,1.0,-3.84146332741,-3.17073178291,5.18292713165,1.0,0.0,0.0,0.0,1.0,0.0,0.0,0.0,1.0,1.17794714373,-0.890643017578,10.3381627686,1.0,0.0,0.0,0.0,1.0,0.0,0.0,0.0,1.0
1479745227354131150,309,1479745227351920795,,-3.35888528824,-7.54538393021,-100.455657959,0.000987999956124,1.0,0.0,0.0,0.0,1.0,0.0,0.0,0.0,1.0,-2.31707310677,-0.18292683363,1.34146344662,1.0,0.0,0.0,0.0,1.0,0.0,0.0,0.0,1.0,2.55221896973,-0.818816967773,10.4770264648,1.0,0.0,0.0,0.0,1.0,0.0,0.0,0.0,1.0
1479745227387611790,310,1479745227386718668,,-3.39689993858,-7.60841941833,-100.420074463,0.000987999956124,1.0,0.0,0.0,0.0,1.0,0.0,0.0,0.0,1.0,-1.8902438879,4.45121955872,1.58536589146,1.0,0.0,0.0,0.0,1.0,0.0,0.0,0.0,1.0,0.991199487305,-0.976834277344,10.5488525146,1.0,0.0,0.0,0.0,1.0,0.0,0.0,0.0,1.0
1479745227424227468,311,1479745227423041953,,-3.29624629021,-7.60657930374,-100.340278625,0.00151700002607,1.0,0.0,0.0,0.0,1.0,0.0,0.0,0.0,1.0,-1.52439022064,7.43902492523,2.62195134163,1.0,0.0,0.0,0.0,1.0,0.0,0.0,0.0,1.0,1.86747729492,-0.0861912597656,10.2615483154,1.0,0.0,0.0,0.0,1.0,0.0,0.0,0.0,1.0
1479745227458421334,312,1479745227457381912,,-3.04107451439,-7.57105493546,-100.351631165,0.000961999990977,1.0,0.0,0.0,0.0,1.0,0.0,0.0,0.0,1.0,-1.2804877758,8.84146404266,0.670731723309,1.0,0.0,0.0,0.0,1.0,0.0,0.0,0.0,1.0,0.952892260742,-0.943315454102,9.69651672363,1.0,0.0,0.0,0.0,1.0,0.0,0.0,0.0,1.0
1479745227493497488,313,1479745227492464628,,-2.71885585785,-7.56338167191,-100.298736572,0.00109000003431,1.0,0.0,0.0,0.0,1.0,0.0,0.0,0.0,1.0,-1.58536589146,11.0365858078,1.09756100178,1.0,0.0,0.0,0.0,1.0,0.0,0.0,0.0,1.0,0.756567724609,-0.622492431641,10.3285859619,1.0,0.0,0.0,0.0,1.0,0.0,0.0,0.0,1.0
1479745227528414685,314,1479745227527538595,,-2.43431663513,-7.52939987183,-100.311820984,0.000973000016529,1.0,0.0,0.0,0.0,1.0,0.0,0.0,0.0,1.0,-1.64634156227,8.47560977936,0.426829278469,1.0,0.0,0.0,0.0,1.0,0.0,0.0,0.0,1.0,0.794874951172,-0.45968671875,10.2807019287,1.0,0.0,0.0,0.0,1.0,0.0,0.0,0.0,1.0
1479745227564210471,315,1479745227562996987,,-2.13980913162,-7.48736333847,-100.253669739,0.00115300004836,1.0,0.0,0.0,0.0,1.0,0.0,0.0,0.0,1.0,-2.01219511032,6.28048801422,0.609756112099,1.0,0.0,0.0,0.0,1.0,0.0,0.0,0.0,1.0,0.474051928711,-0.61770402832,10.433930835,1.0,0.0,0.0,0.0,1.0,0.0,0.0,0.0,1.0
1479745227598958397,316,1479745227597846214,,-1.88482236862,-7.486577034,-100.190193176,0.000976999988779,1.0,0.0,0.0,0.0,1.0,0.0,0.0,0.0,1.0,-0.853658556938,9.02439117432,1.46341466904,1.0,0.0,0.0,0.0,1.0,0.0,0.0,0.0,1.0,-0.0335188255255,-0.76614453125,9.84495722656,1.0,0.0,0.0,0.0,1.0,0.0,0.0,0.0,1.0
1479745227634002520,317,1479745227633094347,,-1.5614695549,-7.49392700195,-100.241409302,0.000974000024144,1.0,0.0,0.0,0.0,1.0,0.0,0.0,0.0,1.0,-1.8292683363,2.19512200356,1.34146344662,1.0,0.0,0.0,0.0,1.0,0.0,0.0,0.0,1.0,-1.70945998535,-0.330399829102,9.41878874653,1.0,0.0,0.0,0.0,1.0,0.0,0.0,0.0,1.0
1479745227668624978,318,1479745227667735294,,-1.50901448727,-7.42352056503,-100.159957886,0.0010890000267,1.0,0.0,0.0,0.0,1.0,0.0,0.0,0.0,1.0,-3.59756112099,-10.8536586761,0.548780500889,1.0,0.0,0.0,0.0,1.0,0.0,0.0,0.0,1.0,0.507570751953,0.320823022461,9.81622680664,1.0,0.0,0.0,0.0,1.0,0.0,0.0,0.0,1.0
1479745227705284615,319,1479745227703361134,,-1.88749217987,-7.39169406891,-99.9477386475,0.00121899996884,1.0,0.0,0.0,0.0,1.0,0.0,0.0,0.0,1.0,-2.56097555161,-12.2560977936,1.95121955872,1.0,0.0,0.0,0.0,1.0,0.0,0.0,0.0,1.0,0.565031591797,-0.565031591797,10.2040874756,1.0,0.0,0.0,0.0,1.0,0.0,0.0,0.0,1.0
1479745227742445135,320,1479745227738747442,,-2.40014219284,-7.4965877533,-99.8161392212,0.00104600004852,1.0,0.0,0.0,0.0,1.0,0.0,0.0,0.0,1.0,-2.07317066193,-13.658536911,0.487804889679,1.0,0.0,0.0,0.0,1.0,0.0,0.0,0.0,1.0,0.325611425781,-0.928950244141,10.2759135254,1.0,0.0,0.0,0.0,1.0,0.0,0.0,0.0,1.0
1479745227774283959,321,1479745227773297088,,-2.81913661957,-7.52881336212,-99.6609420776,0.00102500000503,1.0,0.0,0.0,0.0,1.0,0.0,0.0,0.0,1.0,-1.76829278469,-9.45121955872,1.2804877758,1.0,0.0,0.0,0.0,1.0,0.0,0.0,0.0,1.0,1.65678754883,0.0814028564453,10.1274730225,1.0,0.0,0.0,0.0,1.0,0.0,0.0,0.0,1.0
1479745227809582873,322,1479745227808417044,,-3.14831376076,-7.51677942276,-99.5805358887,0.000991999986582,1.0,0.0,0.0,0.0,1.0,0.0,0.0,0.0,1.0,-1.76829278469,-3.17073178291,0.792682945728,1.0,0.0,0.0,0.0,1.0,0.0,0.0,0.0,1.0,0.488417138672,-0.660799658203,10.2136642822,1.0,0.0,0.0,0.0,1.0,0.0,0.0,0.0,1.0
1479745227844987358,323,1479745227844155435,,-3.34295487404,-7.55459356308,-99.4593582153,0.00142400001641,1.0,0.0,0.0,0.0,1.0,0.0,0.0,0.0,1.0,-2.68292689323,-3.04878044128,0.304878056049,1.0,0.0,0.0,0.0,1.0,0.0,0.0,0.0,1.0,1.70945998535,-0.636857641602,9.99818613281,1.0,0.0,0.0,0.0,1.0,0.0,0.0,0.0,1.0
1479745227880677885,324,1479745227879212110,,-3.38449001312,-7.57082080841,-99.3573989868,0.00114700000267,1.0,0.0,0.0,0.0,1.0,0.0,0.0,0.0,1.0,-0.914634168148,8.35365867615,-0.18292683363,1.0,0.0,0.0,0.0,1.0,0.0,0.0,0.0,1.0,1.41736738281,-0.531512805087,10.3716815918,1.0,0.0,0.0,0.0,1.0,0.0,0.0,0.0,1.0
1479745227915528206,325,1479745227914549252,,-3.09519720078,-7.58400392532,-99.4179916382,0.00128099997528,1.0,0.0,0.0,0.0,1.0,0.0,0.0,0.0,1.0,-1.46341466904,6.40243911743,1.15853655338,1.0,0.0,0.0,0.0,1.0,0.0,0.0,0.0,1.0,-0.220266552734,-0.598550451572,9.84016882324,1.0,0.0,0.0,0.0,1.0,0.0,0.0,0.0,1.0
1479745227950873891,326,1479745227949780874,,-2.86112046242,-7.51324796677,-99.3285980225,0.00113700004295,1.0,0.0,0.0,0.0,1.0,0.0,0.0,0.0,1.0,-1.76829278469,5.42682933807,0.426829278469,1.0,0.0,0.0,0.0,1.0,0.0,0.0,0.0,1.0,0.756567724609,-0.416591088867,10.2040874756,1.0,0.0,0.0,0.0,1.0,0.0,0.0,0.0,1.0
1479745227987261758,327,1479745227986457959,,-2.72009634972,-7.52718830109,-99.2924728394,0.0021190000698,1.0,0.0,0.0,0.0,1.0,0.0,0.0,0.0,1.0,-2.07317066193,2.74390244484,2.43902444839,1.0,0.0,0.0,0.0,1.0,0.0,0.0,0.0,1.0,0.474051928711,-0.852335791016,9.96466730957,1.0,0.0,0.0,0.0,1.0,0.0,0.0,0.0,1.0
1479745228020510055,328,1479745228019288550,,-2.61125159264,-7.52125263214,-99.2229156494,0.0010229999898,1.0,0.0,0.0,0.0,1.0,0.0,0.0,0.0,1.0,-1.8902438879,-8.71951198578,-1.64634156227,1.0,0.0,0.0,0.0,1.0,0.0,0.0,0.0,1.0,0.210689746094,-0.225054956055,10.4147772217,1.0,0.0,0.0,0.0,1.0,0.0,0.0,0.0,1.0
1479745228055503813,329,1479745228054018767,,-2.73681282997,-7.50035667419,-99.0992889404,0.000976999988779,1.0,0.0,0.0,0.0,1.0,0.0,0.0,0.0,1.0,-0.18292683363,-2.56097555161,4.32926845551,1.0,0.0,0.0,0.0,1.0,0.0,0.0,0.0,1.0,1.39821376953,-0.646434448242,9.71088193359,1.0,0.0,0.0,0.0,1.0,0.0,0.0,0.0,1.0
1479745228089809554,330,1479745228088948828,,-2.8950381279,-7.52630090714,-99.0205841064,0.00101400003769,1.0,0.0,0.0,0.0,1.0,0.0,0.0,0.0,1.0,-1.8902438879,0.670731723309,0.12195122242,1.0,0.0,0.0,0.0,1.0,0.0,0.0,0.0,1.0,0.569819995117,-0.92416184082,9.64863327495,1.0,0.0,0.0,0.0,1.0,0.0,0.0,0.0,1.0
1479745228124894666,331,1479745228124050659,,-2.87861800194,-7.57771635056,-98.9613189697,0.00486300000921,1.0,0.0,0.0,0.0,1.0,0.0,0.0,0.0,1.0,-2.80487799644,2.37804889679,3.47560977936,1.0,0.0,0.0,0.0,1.0,0.0,0.0,0.0,1.0,0.995987890625,-0.502782348633,9.7827079834,1.0,0.0,0.0,0.0,1.0,0.0,0.0,0.0,1.0
1479745228159385458,332,1479745228158346139,,-2.78683996201,-7.51485204697,-98.8882064819,0.00103699997999,1.0,0.0,0.0,0.0,1.0,0.0,0.0,0.0,1.0,-1.64634156227,10.7926826477,-1.58536589146,1.0,0.0,0.0,0.0,1.0,0.0,0.0,0.0,1.0,0.622492431641,-0.349553442383,9.89762966309,1.0,0.0,0.0,0.0,1.0,0.0,0.0,0.0,1.0
1479745228194516456,333,1479745228193506460,,-2.4731657505,-7.54361248016,-98.969543457,0.000976999988779,1.0,0.0,0.0,0.0,1.0,0.0,0.0,0.0,1.0,-2.62195134163,9.39024448395,2.43902444839,1.0,0.0,0.0,0.0,1.0,0.0,0.0,0.0,1.0,0.804451757813,-0.545877978516,10.4770264648,1.0,0.0,0.0,0.0,1.0,0.0,0.0,0.0,1.0
1479745228229287559,334,1479745228228329281,,-2.24914264679,-7.4701833725,-98.8951797485,0.00106899999082,1.0,0.0,0.0,0.0,1.0,0.0,0.0,0.0,1.0,-3.84146332741,-7.50000047684,-4.32926845551,1.0,0.0,0.0,0.0,1.0,0.0,0.0,0.0,1.0,-0.100556469727,0.258573779297,11.4442839355,1.0,0.0,0.0,0.0,1.0,0.0,0.0,0.0,1.0
1479745228265007095,335,1479745228263609289,,-2.38469338417,-7.44458580017,-98.715423584,0.00128800002858,1.0,0.0,0.0,0.0,1.0,0.0,0.0,0.0,1.0,-0.487804889679,-4.32926845551,3.04878044128,1.0,0.0,0.0,0.0,1.0,0.0,0.0,0.0,1.0,0.991199487305,-0.584185168546,11.0420580566,1.0,0.0,0.0,0.0,1.0,0.0,0.0,0.0,1.0
1479745228300002260,336,1479745228298700339,,-2.67390823364,-7.52413654327,-98.6204986572,0.00109499995597,1.0,0.0,0.0,0.0,1.0,0.0,0.0,0.0,1.0,-0.487804889679,4.2682929039,2.43902444839,1.0,0.0,0.0,0.0,1.0,0.0,0.0,0.0,1.0,2.31279880371,-1.14921679688,10.0412817627,1.0,0.0,0.0,0.0,1.0,0.0,0.0,0.0,1.0
1479745228335465392,337,1479745228334169095,,-2.60547542572,-7.56679201126,-98.5862731934,0.00123199995141,1.0,0.0,0.0,0.0,1.0,0.0,0.0,0.0,1.0,-2.86585378647,1.52439022064,-1.64634156227,1.0,0.0,0.0,0.0,1.0,0.0,0.0,0.0,1.0,0.368707055664,-0.541089611728,10.0891657959,1.0,0.0,0.0,0.0,1.0,0.0,0.0,0.0,1.0
1479745228370297745,338,1479745228369107958,,-2.47564697266,-7.49657964706,-98.5413360596,0.00102500000503,1.0,0.0,0.0,0.0,1.0,0.0,0.0,0.0,1.0,-2.5,1.64634156227,2.13414645195,1.0,0.0,0.0,0.0,1.0,0.0,0.0,0.0,1.0,-1.19231249982,-0.296881024126,9.93114848633,1.0,0.0,0.0,0.0,1.0,0.0,0.0,0.0,1.0
1479745228406292488,339,1479745228404734578,,-2.60694289207,-7.48904561996,-98.4021911621,0.00175399996806,1.0,0.0,0.0,0.0,1.0,0.0,0.0,0.0,1.0,-2.56097555161,-6.09756088257,7.62195110321,1.0,0.0,0.0,0.0,1.0,0.0,0.0,0.0,1.0,1.02471831055,-0.359130249023,9.7827079834,1.0,0.0,0.0,0.0,1.0,0.0,0.0,0.0,1.0
1479745228446276278,340,1479745228441465517,,-2.78396749496,-7.54960823059,-97.9896240234,0.00112000002991,1.0,0.0,0.0,0.0,1.0,0.0,0.0,0.0,1.0,-0.731707334518,28.9024410248,16.6463413239,1.0,0.0,0.0,0.0,1.0,0.0,0.0,0.0,1.0,0.995987890625,-0.852335791016,9.57680722515,1.0,0.0,0.0,0.0,1.0,0.0,0.0,0.0,1.0
1479745228479158899,341,1479745228475339645,,-2.05777740479,-7.65004205704,-98.1274108887,0.00115499994718,1.0,0.0,0.0,0.0,1.0,0.0,0.0,0.0,1.0,-2.13414645195,22.4390239716,0.0609756112099,1.0,0.0,0.0,0.0,1.0,0.0,0.0,0.0,1.0,0.426167895508,-1.63763393555,8.97825622559,1.0,0.0,0.0,0.0,1.0,0.0,0.0,0.0,1.0
1479745228512192666,342,1479745228510944390,,-1.21927118301,-7.53694534302,-98.2428741455,0.00100199994631,1.0,0.0,0.0,0.0,1.0,0.0,0.0,0.0,1.0,-2.62195134163,22.4390239716,-1.58536589146,1.0,0.0,0.0,0.0,1.0,0.0,0.0,0.0,1.0,-0.598550451572,-0.215478149414,9.88326445312,1.0,0.0,0.0,0.0,1.0,0.0,0.0,0.0,1.0
1479745228546864864,343,1479745228545659244,,-0.266836166382,-7.48437166214,-98.2612533569,0.00108700001147,1.0,0.0,0.0,0.0,1.0,0.0,0.0,0.0,1.0,-0.426829278469,27.4390258789,8.78048801422,1.0,0.0,0.0,0.0,1.0,0.0,0.0,0.0,1.0,1.13006318359,-0.737414111328,10.2567599121,1.0,0.0,0.0,0.0,1.0,0.0,0.0,0.0,1.0
1479745228584483767,344,1479745228581647269,,0.701442062855,-7.44308137894,-98.2049636841,0.00119199999608,1.0,0.0,0.0,0.0,1.0,0.0,0.0,0.0,1.0,-2.25609779358,31.2195129395,3.59756112099,1.0,0.0,0.0,0.0,1.0,0.0,0.0,0.0,1.0,1.53707746582,-0.828393774414,10.1897222656,1.0,0.0,0.0,0.0,1.0,0.0,0.0,0.0,1.0
1479745228622194181,345,1479745228616354518,,1.79163396358,-7.34802818298,-98.3268890381,0.000973000016529,1.0,0.0,0.0,0.0,1.0,0.0,0.0,0.0,1.0,-0.426829278469,35.8536605835,-1.09756100178,1.0,0.0,0.0,0.0,1.0,0.0,0.0,0.0,1.0,0.387860668945,-0.234631762695,10.3812583984,1.0,0.0,0.0,0.0,1.0,0.0,0.0,0.0,1.0
1479745228653276133,346,1479745228651942597,,3.0974342823,-7.23222541809,-98.3741149902,0.00106100004632,1.0,0.0,0.0,0.0,1.0,0.0,0.0,0.0,1.0,-0.487804889679,35.0000038147,-2.68292689323,1.0,0.0,0.0,0.0,1.0,0.0,0.0,0.0,1.0,-1.58974990234,0.181959326172,10.2807019287,1.0,0.0,0.0,0.0,1.0,0.0,0.0,0.0,1.0
1479745228688146298,347,1479745228686990678,,4.2271027565,-7.21660900116,-98.4976806641,0.00102700002026,1.0,0.0,0.0,0.0,1.0,0.0,0.0,0.0,1.0,-0.487804889679,24.5731716156,-0.304878056049,1.0,0.0,0.0,0.0,1.0,0.0,0.0,0.0,1.0,-2.57137258301,-0.785298144531,9.4570959731,1.0,0.0,0.0,0.0,1.0,0.0,0.0,0.0,1.0
1479745228724444530,348,1479745228722530164,,4.9072637558,-7.22875595093,-98.6600646973,0.00217600003816,1.0,0.0,0.0,0.0,1.0,0.0,0.0,0.0,1.0,-1.40243899822,7.07317113876,-2.25609779358,1.0,0.0,0.0,0.0,1.0,0.0,0.0,0.0,1.0,-2.89698400879,-0.368707055664,9.70609353027,1.0,0.0,0.0,0.0,1.0,0.0,0.0,0.0,1.0
1479745228760781721,349,1479745228757838244,,5.32124137878,-7.15628194809,-98.5536499023,0.000989999971353,1.0,0.0,0.0,0.0,1.0,0.0,0.0,0.0,1.0,-2.19512200356,2.86585378647,-0.975609779358,1.0,0.0,0.0,0.0,1.0,0.0,0.0,0.0,1.0,-1.13006318359,-0.517147558594,9.82580361328,1.0,0.0,0.0,0.0,1.0,0.0,0.0,0.0,1.0
1479745228794518870,350,1479745228793306323,,5.25548362732,-7.2112622261,-98.76927948,0.00104200001806,1.0,0.0,0.0,0.0,1.0,0.0,0.0,0.0,1.0,-1.64634156227,-22.5609760284,-8.65853691101,1.0,0.0,0.0,0.0,1.0,0.0,0.0,0.0,1.0,-2.22181914063,-0.957680664062,10.5296989014,1.0,0.0,0.0,0.0,1.0,0.0,0.0,0.0,1.0
1479745228829627888,351,1479745228828435602,,4.69450569153,-7.24758434296,-98.553352356,0.00100299995393,1.0,0.0,0.0,0.0,1.0,0.0,0.0,0.0,1.0,-3.84146332741,-16.158536911,6.64634132385,1.0,0.0,0.0,0.0,1.0,0.0,0.0,0.0,1.0,-1.26892687988,-0.316034619141,9.94072529297,1.0,0.0,0.0,0.0,1.0,0.0,0.0,0.0,1.0
1479745228864962791,352,1479745228863731651,,3.96793532372,-7.20010757446,-98.2754821777,0.00211300002411,1.0,0.0,0.0,0.0,1.0,0.0,0.0,0.0,1.0,-2.07317066193,-16.5243911743,3.10975623131,1.0,0.0,0.0,0.0,1.0,0.0,0.0,0.0,1.0,-0.15801730957,-0.426167895508,10.180145459,1.0,0.0,0.0,0.0,1.0,0.0,0.0,0.0,1.0
1479745228902193728,353,1479745228898187339,,3.31794285774,-7.21660137177,-98.0979919434,0.00102199998219,1.0,0.0,0.0,0.0,1.0,0.0,0.0,0.0,1.0,-2.98780488968,-13.7804880142,2.43902444839,1.0,0.0,0.0,0.0,1.0,0.0,0.0,0.0,1.0,0.881066210937,-0.76614453125,10.2088758789,1.0,0.0,0.0,0.0,1.0,0.0,0.0,0.0,1.0
1479745228934460519,354,1479745228933270784,,2.83312654495,-7.2101392746,-97.9253692627,0.00151400000323,1.0,0.0,0.0,0.0,1.0,0.0,0.0,0.0,1.0,-2.07317066193,-1.8292683363,3.10975623131,1.0,0.0,0.0,0.0,1.0,0.0,0.0,0.0,1.0,0.708683691406,-0.3064578125,10.1753570557,1.0,0.0,0.0,0.0,1.0,0.0,0.0,0.0,1.0
1479745228968743030,355,1479745228967523244,,2.61019921303,-7.20808839798,-97.825881958,0.00103599997237,1.0,0.0,0.0,0.0,1.0,0.0,0.0,0.0,1.0,-2.13414645195,1.95121955872,-0.18292683363,1.0,0.0,0.0,0.0,1.0,0.0,0.0,0.0,1.0,0.995987890625,-0.871489404297,10.1514150391,1.0,0.0,0.0,0.0,1.0,0.0,0.0,0.0,1.0
1479745229004807201,356,1479745229003588873,,2.70990657806,-7.16070318222,-97.7645797729,0.00153699994553,1.0,0.0,0.0,0.0,1.0,0.0,0.0,0.0,1.0,-1.8902438879,7.80487823486,-2.25609779358,1.0,0.0,0.0,0.0,1.0,0.0,0.0,0.0,1.0,0.263362164351,-0.325611425781,10.2088758789,1.0,0.0,0.0,0.0,1.0,0.0,0.0,0.0,1.0
1479745229041599077,357,1479745229038561590,,2.92101931572,-7.20015907288,-97.8262023926,0.00109399994835,1.0,0.0,0.0,0.0,1.0,0.0,0.0,0.0,1.0,-1.70731711388,9.39024448395,3.17073178291,1.0,0.0,0.0,0.0,1.0,0.0,0.0,0.0,1.0,-1.34554133301,-0.818816967773,10.2136642822,1.0,0.0,0.0,0.0,1.0,0.0,0.0,0.0,1.0
1479745229074938832,358,1479745229073579567,,3.07044625282,-7.15103197098,-97.6130447388,0.00118100002874,1.0,0.0,0.0,0.0,1.0,0.0,0.0,0.0,1.0,-1.64634156227,6.28048801422,1.09756100178,1.0,0.0,0.0,0.0,1.0,0.0,0.0,0.0,1.0,0.186747729492,-1.04387185076,9.91678327637,1.0,0.0,0.0,0.0,1.0,0.0,0.0,0.0,1.0
1479745229110109152,359,1479745229108332285,,3.2531414032,-7.14869213104,-97.6090774536,0.000962999998592,1.0,0.0,0.0,0.0,1.0,0.0,0.0,0.0,1.0,-1.46341466904,10.0,1.03658533096,1.0,0.0,0.0,0.0,1.0,0.0,0.0,0.0,1.0,0.986411083984,0.0814028564453,10.405200415,1.0,0.0,0.0,0.0,1.0,0.0,0.0,0.0,1.0
1479745229145360514,360,1479745229144161404,,3.60227251053,-7.17303085327,-97.6408615112,0.0016230000183,1.0,0.0,0.0,0.0,1.0,0.0,0.0,0.0,1.0,-1.2804877758,6.28048801422,-0.548780500889,1.0,0.0,0.0,0.0,1.0,0.0,0.0,0.0,1.0,-1.15879360352,-0.598550451572,10.0556469727,1.0,0.0,0.0,0.0,1.0,0.0,0.0,0.0,1.0
1479745229181816766,361,1479745229179425161,,3.60218024254,-7.17456150055,-97.5927810669,0.00109799997881,1.0,0.0,0.0,0.0,1.0,0.0,0.0,0.0,1.0,-1.03658533096,0.792682945728,4.93902444839,1.0,0.0,0.0,0.0,1.0,0.0,0.0,0.0,1.0,-0.598550451572,-0.77093293457,10.0269165527,1.0,0.0,0.0,0.0,1.0,0.0,0.0,0.0,1.0
1479745229215278760,362,1479745229214026942,,3.40730977058,-7.1490316391,-97.3806228638,0.00110100000165,1.0,0.0,0.0,0.0,1.0,0.0,0.0,0.0,1.0,-2.5,-2.25609779358,0.914634168148,1.0,0.0,0.0,0.0,1.0,0.0,0.0,0.0,1.0,0.785298144531,-0.622492431641,10.0317049561,1.0,0.0,0.0,0.0,1.0,0.0,0.0,0.0,1.0
1479745229249935801,363,1479745229248766639,,3.27704000473,-7.15910100937,-97.3368835449,0.000976999988779,1.0,0.0,0.0,0.0,1.0,0.0,0.0,0.0,1.0,-2.56097555161,-1.95121955872,-0.18292683363,1.0,0.0,0.0,0.0,1.0,0.0,0.0,0.0,1.0,-0.378283862305,-0.665588061523,10.1562034424,1.0,0.0,0.0,0.0,1.0,0.0,0.0,0.0,1.0
1479745229285663671,364,1479745229284475499,,3.30111670494,-7.12448787689,-97.230796814,0.00145700003486,1.0,0.0,0.0,0.0,1.0,0.0,0.0,0.0,1.0,-1.46341466904,1.52439022064,-0.426829278469,1.0,0.0,0.0,0.0,1.0,0.0,0.0,0.0,1.0,0.177170922852,-0.435744702148,10.3621047852,1.0,0.0,0.0,0.0,1.0,0.0,0.0,0.0,1.0
1479745229322906118,365,1479745229319189467,,3.24932694435,-7.16839742661,-97.2426452637,0.00102700002026,1.0,0.0,0.0,0.0,1.0,0.0,0.0,0.0,1.0,-1.58536589146,0.18292683363,4.57317066193,1.0,0.0,0.0,0.0,1.0,0.0,0.0,0.0,1.0,-0.794874951172,-0.344765039063,10.1849338623,1.0,0.0,0.0,0.0,1.0,0.0,0.0,0.0,1.0
1479745229355525512,366,1479745229354293173,,3.01590490341,-7.1450381279,-96.9923858643,0.00118799996562,1.0,0.0,0.0,0.0,1.0,0.0,0.0,0.0,1.0,-2.98780488968,3.71951246262,4.32926845551,1.0,0.0,0.0,0.0,1.0,0.0,0.0,0.0,1.0,4.49152231445,-1.14442839355,10.1178962158,1.0,0.0,0.0,0.0,1.0,0.0,0.0,0.0,1.0
1479745229390049012,367,1479745229388866725,,3.02003073692,-7.13138914108,-96.9578857422,0.00109100004192,1.0,0.0,0.0,0.0,1.0,0.0,0.0,0.0,1.0,-2.19512200356,1.34146344662,-3.90243911743,1.0,0.0,0.0,0.0,1.0,0.0,0.0,0.0,1.0,-0.76135612793,-0.828393774414,9.91199487305,1.0,0.0,0.0,0.0,1.0,0.0,0.0,0.0,1.0
1479745229425178551,368,1479745229424008400,,3.14963102341,-7.12695789337,-96.9102859497,0.00137199996971,1.0,0.0,0.0,0.0,1.0,0.0,0.0,0.0,1.0,-2.74390244484,-9.26829242706,0.853658556938,1.0,0.0,0.0,0.0,1.0,0.0,0.0,0.0,1.0,0.938527050781,-1.14921679688,11.1330377197,1.0,0.0,0.0,0.0,1.0,0.0,0.0,0.0,1.0
1479745229461979645,369,1479745229459233928,,2.92736887932,-7.11988639832,-96.6627426147,0.00102199998219,1.0,0.0,0.0,0.0,1.0,0.0,0.0,0.0,1.0,-2.80487799644,12.5,9.14634132385,1.0,0.0,0.0,0.0,1.0,0.0,0.0,0.0,1.0,3.16034619141,0.177170922852,10.9845972168,1.0,0.0,0.0,0.0,1.0,0.0,0.0,0.0,1.0
1479745229494843569,370,1479745229493636178,,3.05174326897,-7.15919589996,-96.6147994995,0.0011340000201,1.0,0.0,0.0,0.0,1.0,0.0,0.0,0.0,1.0,-0.548780500889,3.53658556938,-6.21951246262,1.0,0.0,0.0,0.0,1.0,0.0,0.0,0.0,1.0,-3.76847341309,-0.957680664062,8.69095202637,1.0,0.0,0.0,0.0,1.0,0.0,0.0,0.0,1.0
1479745229530186753,371,1479745229528985352,,3.16383194923,-7.1484913826,-96.6082763672,0.0009710000013,1.0,0.0,0.0,0.0,1.0,0.0,0.0,0.0,1.0,-3.7804877758,5.91463422775,7.80487823486,1.0,0.0,0.0,0.0,1.0,0.0,0.0,0.0,1.0,-0.588973571866,-0.258573779297,10.3716815918,1.0,0.0,0.0,0.0,1.0,0.0,0.0,0.0,1.0
1479745229565489052,372,1479745229564321557,,3.2759976387,-7.12425613403,-96.431060791,0.00146900000982,1.0,0.0,0.0,0.0,1.0,0.0,0.0,0.0,1.0,-1.46341466904,18.5975627899,2.01219511032,1.0,0.0,0.0,0.0,1.0,0.0,0.0,0.0,1.0,-0.91458503418,-0.407014282227,10.0269165527,1.0,0.0,0.0,0.0,1.0,0.0,0.0,0.0,1.0
1479745229602048846,373,1479745229599402346,,3.69951796532,-7.15333890915,-96.5515365601,0.00106599996798,1.0,0.0,0.0,0.0,1.0,0.0,0.0,0.0,1.0,-2.5,11.2804880142,0.853658556938,1.0,0.0,0.0,0.0,1.0,0.0,0.0,0.0,1.0,-0.61770402832,-0.828393774414,9.80665,1.0,0.0,0.0,0.0,1.0,0.0,0.0,0.0,1.0
1479745229635339122,374,1479745229634096627,,4.17045640945,-7.088326931,-96.4541854858,0.00114700000267,1.0,0.0,0.0,0.0,1.0,0.0,0.0,0.0,1.0,-2.5,14.3902444839,2.43902444839,1.0,0.0,0.0,0.0,1.0,0.0,0.0,0.0,1.0,0.354341845703,-0.555454785156,10.1226846191,1.0,0.0,0.0,0.0,1.0,0.0,0.0,0.0,1.0
1479745229669951632,375,1479745229668786533,,4.6437458992,-7.08697843552,-96.4548721313,0.000965000013821,1.0,0.0,0.0,0.0,1.0,0.0,0.0,0.0,1.0,-1.34146344662,19.5731716156,0.548780500889,1.0,0.0,0.0,0.0,1.0,0.0,0.0,0.0,1.0,0.833182177734,-0.248996972656,10.5775829346,1.0,0.0,0.0,0.0,1.0,0.0,0.0,0.0,1.0
1479745229705540700,376,1479745229704377528,,5.23367929459,-7.08808135986,-96.5464859009,0.00159100000747,1.0,0.0,0.0,0.0,1.0,0.0,0.0,0.0,1.0,-0.243902444839,11.4024391174,-1.95121955872,1.0,0.0,0.0,0.0,1.0,0.0,0.0,0.0,1.0,-1.36948334961,-0.560243188477,9.94072529297,1.0,0.0,0.0,0.0,1.0,0.0,0.0,0.0,1.0
1479745229741798724,377,1479745229739836545,,5.73748731613,-7.06418371201,-96.4682922363,0.001200000057,1.0,0.0,0.0,0.0,1.0,0.0,0.0,0.0,1.0,-1.52439022064,-1.70731711388,0.853658556938,1.0,0.0,0.0,0.0,1.0,0.0,0.0,0.0,1.0,-2.19787712402,-0.248996972656,9.84974562988,1.0,0.0,0.0,0.0,1.0,0.0,0.0,0.0,1.0
1479745229775723737,378,1479745229774539159,,5.71977043152,-7.06041574478,-96.3586196899,0.00111700000707,1.0,0.0,0.0,0.0,1.0,0.0,0.0,0.0,1.0,-1.34146344662,-2.25609779358,3.41463422775,1.0,0.0,0.0,0.0,1.0,0.0,0.0,0.0,1.0,-0.742202514648,0.143652099609,10.3716815918,1.0,0.0,0.0,0.0,1.0,0.0,0.0,0.0,1.0
1479745229811450878,379,1479745229808937295,,5.53789377213,-7.07180643082,-96.2357025146,0.00105099997018,1.0,0.0,0.0,0.0,1.0,0.0,0.0,0.0,1.0,-1.8902438879,-3.90243911743,0.304878056049,1.0,0.0,0.0,0.0,1.0,0.0,0.0,0.0,1.0,0.646434448242,-0.660799658203,10.0077629395,1.0,0.0,0.0,0.0,1.0,0.0,0.0,0.0,1.0
1479745229845551047,380,1479745229844323812,,5.45489454269,-7.05243396759,-96.1405639648,0.00165200000629,1.0,0.0,0.0,0.0,1.0,0.0,0.0,0.0,1.0,-1.8902438879,-2.37804889679,1.76829278469,1.0,0.0,0.0,0.0,1.0,0.0,0.0,0.0,1.0,-0.598550451572,-0.708683691406,10.0700121826,1.0,0.0,0.0,0.0,1.0,0.0,0.0,0.0,1.0
1479745229882177142,381,1479745229880165432,,5.30754709244,-7.03553009033,-96.0195770264,0.00133700005244,1.0,0.0,0.0,0.0,1.0,0.0,0.0,0.0,1.0,-1.8902438879,-0.12195122242,0.243902444839,1.0,0.0,0.0,0.0,1.0,0.0,0.0,0.0,1.0,-0.124498486328,-0.526724328702,10.1274730225,1.0,0.0,0.0,0.0,1.0,0.0,0.0,0.0,1.0
1479745229915659813,382,1479745229914422787,,5.31635332108,-7.0204501152,-95.9649124146,0.00115499994718,1.0,0.0,0.0,0.0,1.0,0.0,0.0,0.0,1.0,-3.10975623131,3.96341490746,0.731707334518,1.0,0.0,0.0,0.0,1.0,0.0,0.0,0.0,1.0,-1.08217922346,-0.794874951172,9.52892319194,1.0,0.0,0.0,0.0,1.0,0.0,0.0,0.0,1.0
1479745229951091643,383,1479745229949721649,,5.48361444473,-7.00917053223,-95.9299545288,0.00101799995173,1.0,0.0,0.0,0.0,1.0,0.0,0.0,0.0,1.0,-1.76829278469,2.80487799644,2.74390244484,1.0,0.0,0.0,0.0,1.0,0.0,0.0,0.0,1.0,-1.05823706072,-0.205901342773,10.4387192383,1.0,0.0,0.0,0.0,1.0,0.0,0.0,0.0,1.0
1479745229986324671,384,1479745229985119676,,5.50996637344,-7.01758909225,-95.8017349243,0.0010450000409,1.0,0.0,0.0,0.0,1.0,0.0,0.0,0.0,1.0,-1.8292683363,-1.46341466904,-0.609756112099,1.0,0.0,0.0,0.0,1.0,0.0,0.0,0.0,1.0,-0.373495458984,-0.742202514648,10.0412817627,1.0,0.0,0.0,0.0,1.0,0.0,0.0,0.0,1.0
1479745230024702478,385,1479745230023432535,,5.43810844421,-6.99958705902,-95.7116012573,0.00435600010678,1.0,0.0,0.0,0.0,1.0,0.0,0.0,0.0,1.0,-2.25609779358,-3.96341490746,1.8292683363,1.0,0.0,0.0,0.0,1.0,0.0,0.0,0.0,1.0,-1.20667770978,-0.646434448242,9.96466730957,1.0,0.0,0.0,0.0,1.0,0.0,0.0,0.0,1.0
1479745230060989043,386,1479745230058154159,,5.26492166519,-6.98684644699,-95.5790100098,0.00105600000825,1.0,0.0,0.0,0.0,1.0,0.0,0.0,0.0,1.0,-2.19512200356,-3.65853667259,0.548780500889,1.0,0.0,0.0,0.0,1.0,0.0,0.0,0.0,1.0,-0.162805712891,-0.579396801758,10.2376062988,1.0,0.0,0.0,0.0,1.0,0.0,0.0,0.0,1.0
1479745230093990414,387,1479745230092635316,,5.12021350861,-6.97824144363,-95.4952087402,0.00142400001641,1.0,0.0,0.0,0.0,1.0,0.0,0.0,0.0,1.0,-2.01219511032,-1.40243899822,0.426829278469,1.0,0.0,0.0,0.0,1.0,0.0,0.0,0.0,1.0,-2.01112939453,-0.799663354492,9.8545340332,1.0,0.0,0.0,0.0,1.0,0.0,0.0,0.0,1.0
1479745230128907923,388,1479745230127752563,,4.97834920883,-6.98569965363,-95.4018325806,0.00102700002026,1.0,0.0,0.0,0.0,1.0,0.0,0.0,0.0,1.0,-1.40243899822,1.09756100178,4.39024400711,1.0,0.0,0.0,0.0,1.0,0.0,0.0,0.0,1.0,-0.392649072266,-1.02471831055,10.0125513428,1.0,0.0,0.0,0.0,1.0,0.0,0.0,0.0,1.0
1479745230165958756,389,1479745230164706782,,4.88904380798,-6.97662067413,-95.3168563843,0.00258499989286,1.0,0.0,0.0,0.0,1.0,0.0,0.0,0.0,1.0,-2.43902444839,6.46341466904,-1.46341466904,1.0,0.0,0.0,0.0,1.0,0.0,0.0,0.0,1.0,0.45489831543,-0.363918652344,10.1562034424,1.0,0.0,0.0,0.0,1.0,0.0,0.0,0.0,1.0
1479745230203400942,390,1479745230201333919,,5.19410800934,-6.95552825928,-95.3399963379,0.00305699999444,1.0,0.0,0.0,0.0,1.0,0.0,0.0,0.0,1.0,-1.76829278469,13.7195129395,-1.8292683363,1.0,0.0,0.0,0.0,1.0,0.0,0.0,0.0,1.0,-1.52271225586,-0.598550451572,10.0364933594,1.0,0.0,0.0,0.0,1.0,0.0,0.0,0.0,1.0
1479745230235896534,391,1479745230234729820,,5.62487220764,-6.94614076614,-95.376991272,0.00096700002905,1.0,0.0,0.0,0.0,1.0,0.0,0.0,0.0,1.0,-1.76829278469,7.01219511032,-0.426829278469,1.0,0.0,0.0,0.0,1.0,0.0,0.0,0.0,1.0,-1.44130939941,-0.330399829102,10.2471831055,1.0,0.0,0.0,0.0,1.0,0.0,0.0,0.0,1.0
1479745230270346857,392,1479745230269316653,,5.77535057068,-6.96090650558,-95.3872528076,0.00101899995934,1.0,0.0,0.0,0.0,1.0,0.0,0.0,0.0,1.0,-1.15853655338,-3.47560977936,-3.41463422775,1.0,0.0,0.0,0.0,1.0,0.0,0.0,0.0,1.0,-1.88184250488,-1.00077629395,9.79228479004,1.0,0.0,0.0,0.0,1.0,0.0,0.0,0.0,1.0
1479745230305797385,393,1479745230304611869,,5.64918422699,-6.95682573318,-95.3284606934,0.00115999998525,1.0,0.0,0.0,0.0,1.0,0.0,0.0,0.0,1.0,-2.31707310677,-4.02439022064,1.2804877758,1.0,0.0,0.0,0.0,1.0,0.0,0.0,0.0,1.0,-0.842758984375,-0.660799658203,10.1945106689,1.0,0.0,0.0,0.0,1.0,0.0,0.0,0.0,1.0
1479745230344349566,394,1479745230343086394,,5.47022676468,-6.95290994644,-95.2395095825,0.00383700011298,1.0,0.0,0.0,0.0,1.0,0.0,0.0,0.0,1.0,-2.01219511032,-1.58536589146,0.792682945728,1.0,0.0,0.0,0.0,1.0,0.0,0.0,0.0,1.0,-1.02471831055,-0.426167895508,10.2040874756,1.0,0.0,0.0,0.0,1.0,0.0,0.0,0.0,1.0
1479745230379774676,395,1479745230378161923,,5.35557794571,-6.94258928299,-95.1304168701,0.00108800001908,1.0,0.0,0.0,0.0,1.0,0.0,0.0,0.0,1.0,-2.13414645195,5.54878091812,4.69512224197,1.0,0.0,0.0,0.0,1.0,0.0,0.0,0.0,1.0,1.48919343262,-0.229843359375,10.1131078125,1.0,0.0,0.0,0.0,1.0,0.0,0.0,0.0,1.0
1479745230414392916,396,1479745230413142973,,5.39660215378,-6.94888925552,-95.0189437866,0.00108800001908,1.0,0.0,0.0,0.0,1.0,0.0,0.0,0.0,1.0,-2.5,-4.08536577225,-1.58536589146,1.0,0.0,0.0,0.0,1.0,0.0,0.0,0.0,1.0,-0.569819995117,-1.1540052002,9.51455798198,1.0,0.0,0.0,0.0,1.0,0.0,0.0,0.0,1.0
1479745230449782714,397,1479745230448575323,,5.30347824097,-6.93562602997,-94.916595459,0.00107799994294,1.0,0.0,0.0,0.0,1.0,0.0,0.0,0.0,1.0,-2.31707310677,-5.79268312454,1.76829278469,1.0,0.0,0.0,0.0,1.0,0.0,0.0,0.0,1.0,-1.52271225586,-0.569819995117,10.1274730225,1.0,0.0,0.0,0.0,1.0,0.0,0.0,0.0,1.0
1479745230485062930,398,1479745230483733612,,5.01962995529,-6.92606973648,-94.7691879272,0.00419399980456,1.0,0.0,0.0,0.0,1.0,0.0,0.0,0.0,1.0,-2.07317066193,-4.51219558716,2.19512200356,1.0,0.0,0.0,0.0,1.0,0.0,0.0,0.0,1.0,0.699106884766,-0.421379492187,10.2759135254,1.0,0.0,0.0,0.0,1.0,0.0,0.0,0.0,1.0
1479745230521221371,399,1479745230518133676,,4.78701972961,-6.93290519714,-94.6985168457,0.00106299994513,1.0,0.0,0.0,0.0,1.0,0.0,0.0,0.0,1.0,-1.95121955872,-0.670731723309,-1.34146344662,1.0,0.0,0.0,0.0,1.0,0.0,0.0,0.0,1.0,-0.105344873047,-0.646434448242,10.060435376,1.0,0.0,0.0,0.0,1.0,0.0,0.0,0.0,1.0
1479745230554483210,400,1479745230553263527,,4.78231906891,-6.91949748993,-94.5990524292,0.0010529999854,1.0,0.0,0.0,0.0,1.0,0.0,0.0,0.0,1.0,-2.37804889679,-0.365853667259,2.19512200356,1.0,0.0,0.0,0.0,1.0,0.0,0.0,0.0,1.0,0.114921679688,-0.593762048251,10.4004120117,1.0,0.0,0.0,0.0,1.0,0.0,0.0,0.0,1.0
1479745230589987174,401,1479745230588761919,,4.70034265518,-6.92776870728,-94.4886856079,0.00106000003871,1.0,0.0,0.0,0.0,1.0,0.0,0.0,0.0,1.0,-1.8902438879,-1.8292683363,-0.12195122242,1.0,0.0,0.0,0.0,1.0,0.0,0.0,0.0,1.0,-0.15322890625,-0.383072265625,10.3525279785,1.0,0.0,0.0,0.0,1.0,0.0,0.0,0.0,1.0
1479745230626187282,402,1479745230625001349,,4.63430738449,-6.91860580444,-94.4222793579,0.00168500002474,1.0,0.0,0.0,0.0,1.0,0.0,0.0,0.0,1.0,-2.74390244484,-7.92682981491,-0.12195122242,1.0,0.0,0.0,0.0,1.0,0.0,0.0,0.0,1.0,0.488417138672,-1.1875240965,10.060435376,1.0,0.0,0.0,0.0,1.0,0.0,0.0,0.0,1.0
1479745230663874675,403,1479745230662249265,,4.40588903427,-6.89914751053,-94.2118606567,0.0020759999752,1.0,0.0,0.0,0.0,1.0,0.0,0.0,0.0,1.0,-2.98780488968,12.3780488968,7.86585378647,1.0,0.0,0.0,0.0,1.0,0.0,0.0,0.0,1.0,1.85311208496,0.177170922852,10.1226846191,1.0,0.0,0.0,0.0,1.0,0.0,0.0,0.0,1.0
1479745230697196461,404,1479745230695970477,,4.42097520828,-6.91239452362,-94.1901016235,0.00111299997661,1.0,0.0,0.0,0.0,1.0,0.0,0.0,0.0,1.0,-0.548780500889,0.609756112099,-5.0,1.0,0.0,0.0,0.0,1.0,0.0,0.0,0.0,1.0,-0.775721337891,-0.866701000977,9.8305920166,1.0,0.0,0.0,0.0,1.0,0.0,0.0,0.0,1.0
1479745230732588030,405,1479745230731154339,,4.51497554779,-6.88436794281,-94.1382141113,0.00104799994733,1.0,0.0,0.0,0.0,1.0,0.0,0.0,0.0,1.0,-1.8292683363,-0.792682945728,1.58536589146,1.0,0.0,0.0,0.0,1.0,0.0,0.0,0.0,1.0,-2.69587106934,-0.536301208408,9.53371159526,1.0,0.0,0.0,0.0,1.0,0.0,0.0,0.0,1.0
1479745230767769965,406,1479745230766298409,,4.37947225571,-6.90226316452,-94.0358123779,0.00102800002787,1.0,0.0,0.0,0.0,1.0,0.0,0.0,0.0,1.0,-2.19512200356,-1.03658533096,2.5,1.0,0.0,0.0,0.0,1.0,0.0,0.0,0.0,1.0,-0.0191536132812,-0.248996972656,10.1945106689,1.0,0.0,0.0,0.0,1.0,0.0,0.0,0.0,1.0
1479745230804034395,407,1479745230801831488,,4.23296165466,-6.89587593079,-93.9255523682,0.00113200000487,1.0,0.0,0.0,0.0,1.0,0.0,0.0,0.0,1.0,-1.8902438879,2.80487799644,1.03658533096,1.0,0.0,0.0,0.0,1.0,0.0,0.0,0.0,1.0,0.627280834961,-0.349553442383,10.060435376,1.0,0.0,0.0,0.0,1.0,0.0,0.0,0.0,1.0
1479745230837302224,408,1479745230835932959,,4.31262922287,-6.87332487106,-93.8921279907,0.00110899994615,1.0,0.0,0.0,0.0,1.0,0.0,0.0,0.0,1.0,-1.95121955872,3.41463422775,-0.12195122242,1.0,0.0,0.0,0.0,1.0,0.0,0.0,0.0,1.0,-0.818816967773,-0.708683691406,10.0508585693,1.0,0.0,0.0,0.0,1.0,0.0,0.0,0.0,1.0
1479745230873443998,409,1479745230871465517,,4.43427562714,-6.87473392487,-93.8283081055,0.00102099997457,1.0,0.0,0.0,0.0,1.0,0.0,0.0,0.0,1.0,-1.8292683363,4.63414621353,1.64634156227,1.0,0.0,0.0,0.0,1.0,0.0,0.0,0.0,1.0,-0.550666381836,-0.536301208408,10.2040874756,1.0,0.0,0.0,0.0,1.0,0.0,0.0,0.0,1.0
1479745230907711562,410,1479745230906532504,,4.5593085289,-6.87687587738,-93.7706604004,0.0010379999876,1.0,0.0,0.0,0.0,1.0,0.0,0.0,0.0,1.0,-2.07317066193,6.7682929039,0.243902444839,1.0,0.0,0.0,0.0,1.0,0.0,0.0,0.0,1.0,0.0287304199219,-0.818816967773,10.0077629395,1.0,0.0,0.0,0.0,1.0,0.0,0.0,0.0,1.0
1479745230944634479,411,1479745230943099694,,4.79378986359,-6.88656711578,-93.7947540283,0.00205700006336,1.0,0.0,0.0,0.0,1.0,0.0,0.0,0.0,1.0,-1.03658533096,-13.1097564697,-4.51219558716,1.0,0.0,0.0,0.0,1.0,0.0,0.0,0.0,1.0,-1.1540052002,-0.952892260742,10.1178962158,1.0,0.0,0.0,0.0,1.0,0.0,0.0,0.0,1.0
1479745230979564592,412,1479745230977804755,,4.51675033569,-6.86558771133,-93.6578521729,0.00110300001688,1.0,0.0,0.0,0.0,1.0,0.0,0.0,0.0,1.0,-3.10975623131,7.01219511032,5.97560977936,1.0,0.0,0.0,0.0,1.0,0.0,0.0,0.0,1.0,3.08373173828,-0.708683691406,10.4913916748,1.0,0.0,0.0,0.0,1.0,0.0,0.0,0.0,1.0
1479745231013760072,413,1479745231012510546,,4.49471330643,-6.88911056519,-93.646270752,0.0013269999763,1.0,0.0,0.0,0.0,1.0,0.0,0.0,0.0,1.0,-1.52439022064,-3.10975623131,-4.75609779358,1.0,0.0,0.0,0.0,1.0,0.0,0.0,0.0,1.0,-1.49877023926,-0.713472094727,10.2615483154,1.0,0.0,0.0,0.0,1.0,0.0,0.0,0.0,1.0
1479745231048374510,414,1479745231047215035,,4.47079181671,-6.86327981949,-93.6121826172,0.00142800004687,1.0,0.0,0.0,0.0,1.0,0.0,0.0,0.0,1.0,-2.25609779358,-4.75609779358,1.8902438879,1.0,0.0,0.0,0.0,1.0,0.0,0.0,0.0,1.0,-1.1875240965,-0.450109912109,9.89762966309,1.0,0.0,0.0,0.0,1.0,0.0,0.0,0.0,1.0
1479745231084664669,415,1479745231083319779,,4.25155973434,-6.86471414566,-93.4787063599,0.00198800000362,1.0,0.0,0.0,0.0,1.0,0.0,0.0,0.0,1.0,-2.31707310677,-1.8902438879,2.68292689323,1.0,0.0,0.0,0.0,1.0,0.0,0.0,0.0,1.0,-0.45968671875,-0.339976635742,10.1753570557,1.0,0.0,0.0,0.0,1.0,0.0,0.0,0.0,1.0
1479745231118920149,416,1479745231117625519,,4.051882267,-6.90192079544,-93.4038619995,0.00128500000574,1.0,0.0,0.0,0.0,1.0,0.0,0.0,0.0,1.0,-1.40243899822,-7.50000047684,1.2804877758,1.0,0.0,0.0,0.0,1.0,0.0,0.0,0.0,1.0,0.138863696289,-0.790086547852,9.94072529297,1.0,0.0,0.0,0.0,1.0,0.0,0.0,0.0,1.0
1479745231154727706,417,1479745231153181619,,3.79974412918,-6.88440275192,-93.131729126,0.00117599999066,1.0,0.0,0.0,0.0,1.0,0.0,0.0,0.0,1.0,-3.04878044128,-2.13414645195,3.96341490746,1.0,0.0,0.0,0.0,1.0,0.0,0.0,0.0,1.0,1.22104284668,-0.646434448242,10.1322614258,1.0,0.0,0.0,0.0,1.0,0.0,0.0,0.0,1.0
1479745231188761833,418,1479745231187886160,,3.58656382561,-6.87671852112,-93.0415802002,0.000969999993686,1.0,0.0,0.0,0.0,1.0,0.0,0.0,0.0,1.0,-2.01219511032,1.64634156227,-0.487804889679,1.0,0.0,0.0,0.0,1.0,0.0,0.0,0.0,1.0,-0.076614453125,-0.426167895508,10.2807019287,1.0,0.0,0.0,0.0,1.0,0.0,0.0,0.0,1.0
1479745231224171892,419,1479745231223053824,,3.71809625626,-6.87148761749,-92.9927139282,0.00611199997365,1.0,0.0,0.0,0.0,1.0,0.0,0.0,0.0,1.0,-2.37804889679,4.63414621353,-0.487804889679,1.0,0.0,0.0,0.0,1.0,0.0,0.0,0.0,1.0,-0.320823022461,-0.397437475586,10.3285859619,1.0,0.0,0.0,0.0,1.0,0.0,0.0,0.0,1.0
1479745231263508653,420,1479745231259433462,,3.99612784386,-6.85495328903,-92.946105957,0.001007999992,1.0,0.0,0.0,0.0,1.0,0.0,0.0,0.0,1.0,-2.56097555161,10.4878053665,2.86585378647,1.0,0.0,0.0,0.0,1.0,0.0,0.0,0.0,1.0,0.507570751953,-0.287304199219,10.7308118408,1.0,0.0,0.0,0.0,1.0,0.0,0.0,0.0,1.0
1479745231294581439,421,1479745231293335142,,4.35004901886,-6.88249969482,-92.9365921021,0.00115000002552,1.0,0.0,0.0,0.0,1.0,0.0,0.0,0.0,1.0,-2.13414645195,13.9024391174,-1.46341466904,1.0,0.0,0.0,0.0,1.0,0.0,0.0,0.0,1.0,-0.555454785156,-0.531512805087,10.2759135254,1.0,0.0,0.0,0.0,1.0,0.0,0.0,0.0,1.0
1479745231329893946,422,1479745231328698013,,4.91743135452,-6.86779499054,-92.9736633301,0.00102600001264,1.0,0.0,0.0,0.0,1.0,0.0,0.0,0.0,1.0,-1.58536589146,21.2195129395,1.15853655338,1.0,0.0,0.0,0.0,1.0,0.0,0.0,0.0,1.0,1.11569797363,-0.536301208408,10.8409451172,1.0,0.0,0.0,0.0,1.0,0.0,0.0,0.0,1.0
1479745231364405675,423,1479745231363517294,,5.53669595718,-6.91979169846,-93.1149902344,0.00297000003047,1.0,0.0,0.0,0.0,1.0,0.0,0.0,0.0,1.0,-0.609756112099,-3.7804877758,-8.04878044128,1.0,0.0,0.0,0.0,1.0,0.0,0.0,0.0,1.0,-1.22583125,-0.775721337891,9.7348239502,1.0,0.0,0.0,0.0,1.0,0.0,0.0,0.0,1.0
1479745231401354009,424,1479745231398324282,,5.82871961594,-6.87381649017,-93.0607757568,0.00116900005378,1.0,0.0,0.0,0.0,1.0,0.0,0.0,0.0,1.0,-3.41463422775,10.6707315445,0.548780500889,1.0,0.0,0.0,0.0,1.0,0.0,0.0,0.0,1.0,-0.852335791016,-0.536301208408,10.2759135254,1.0,0.0,0.0,0.0,1.0,0.0,0.0,0.0,1.0
1479745231434170745,425,1479745231433124812,,6.08577537537,-6.9110045433,-93.1153411865,0.00116500002332,1.0,0.0,0.0,0.0,1.0,0.0,0.0,0.0,1.0,-1.70731711388,-0.243902444839,-1.8292683363,1.0,0.0,0.0,0.0,1.0,0.0,0.0,0.0,1.0,-2.08295529821,-0.545877978516,10.1322614258,1.0,0.0,0.0,0.0,1.0,0.0,0.0,0.0,1.0
1479745231469688876,426,1479745231468526642,,6.14082098007,-6.90312242508,-92.9981613159,0.00131099997088,1.0,0.0,0.0,0.0,1.0,0.0,0.0,0.0,1.0,-1.64634156227,0.365853667259,3.90243911743,1.0,0.0,0.0,0.0,1.0,0.0,0.0,0.0,1.0,-0.368707055664,-0.301669427446,10.4961800781,1.0,0.0,0.0,0.0,1.0,0.0,0.0,0.0,1.0
1479745231505265653,427,1479745231504112012,,5.99750423431,-6.90817737579,-92.9253082275,0.00643200008199,1.0,0.0,0.0,0.0,1.0,0.0,0.0,0.0,1.0,-1.52439022064,-9.26829242706,-2.80487799644,1.0,0.0,0.0,0.0,1.0,0.0,0.0,0.0,1.0,-0.430956298828,-0.890643017578,9.95030209961,1.0,0.0,0.0,0.0,1.0,0.0,0.0,0.0,1.0
1479745231540358630,428,1479745231538834470,,5.74506950378,-6.90880823135,-92.7534561157,0.00132299994584,1.0,0.0,0.0,0.0,1.0,0.0,0.0,0.0,1.0,-2.56097555161,9.20731735229,7.62195110321,1.0,0.0,0.0,0.0,1.0,0.0,0.0,0.0,1.0,3.16034619141,-0.296881024126,10.7643306641,1.0,0.0,0.0,0.0,1.0,0.0,0.0,0.0,1.0
1479745231575763533,429,1479745231573755416,,5.79840517044,-6.91016340256,-92.7403335571,0.00112000002991,1.0,0.0,0.0,0.0,1.0,0.0,0.0,0.0,1.0,-0.609756112099,7.37804937363,-5.24390268326,1.0,0.0,0.0,0.0,1.0,0.0,0.0,0.0,1.0,-1.19231249982,-0.900219824219,10.0843773926,1.0,0.0,0.0,0.0,1.0,0.0,0.0,0.0,1.0
1479745231610074742,430,1479745231608812560,,6.16571426392,-6.8786482811,-92.7629852295,0.0009710000013,1.0,0.0,0.0,0.0,1.0,0.0,0.0,0.0,1.0,-1.8902438879,7.92682981491,1.09756100178,1.0,0.0,0.0,0.0,1.0,0.0,0.0,0.0,1.0,-2.07337849156,-0.632069238281,9.84016882324,1.0,0.0,0.0,0.0,1.0,0.0,0.0,0.0,1.0
1479745231645184125,431,1479745231643912099,,6.3444609642,-6.88582038879,-92.701789856,0.00126199994702,1.0,0.0,0.0,0.0,1.0,0.0,0.0,0.0,1.0,-1.70731711388,0.670731723309,2.19512200356,1.0,0.0,0.0,0.0,1.0,0.0,0.0,0.0,1.0,-0.689530078125,-0.656011254883,10.2519715088,1.0,0.0,0.0,0.0,1.0,0.0,0.0,0.0,1.0
1479745231681128921,432,1479745231679214450,,6.28143548965,-6.88222980499,-92.6151123047,0.00103699997999,1.0,0.0,0.0,0.0,1.0,0.0,0.0,0.0,1.0,-2.13414645195,1.09756100178,0.731707334518,1.0,0.0,0.0,0.0,1.0,0.0,0.0,0.0,1.0,-0.641646044922,-0.670376464844,10.1370498291,1.0,0.0,0.0,0.0,1.0,0.0,0.0,0.0,1.0
1479745231715550703,433,1479745231714192011,,6.34366989136,-6.85785055161,-92.5542755127,0.00103499996476,1.0,0.0,0.0,0.0,1.0,0.0,0.0,0.0,1.0,-2.62195134163,4.93902444839,2.13414645195,1.0,0.0,0.0,0.0,1.0,0.0,0.0,0.0,1.0,-0.0957680664062,0.167594116211,10.524910498,1.0,0.0,0.0,0.0,1.0,0.0,0.0,0.0,1.0
1479745231751205188,434,1479745231749664257,,6.38452911377,-6.88398361206,-92.5785827637,0.000998000032268,1.0,0.0,0.0,0.0,1.0,0.0,0.0,0.0,1.0,-0.609756112099,-5.48780488968,-3.71951246262,1.0,0.0,0.0,0.0,1.0,0.0,0.0,0.0,1.0,-0.521935925381,-0.440533105469,10.3525279785,1.0,0.0,0.0,0.0,1.0,0.0,0.0,0.0,1.0
1479745231785847489,435,1479745231785009316,,6.30657482147,-6.84162998199,-92.4307022095,0.00185200001579,1.0,0.0,0.0,0.0,1.0,0.0,0.0,0.0,1.0,-2.68292689323,10.7926826477,2.80487799644,1.0,0.0,0.0,0.0,1.0,0.0,0.0,0.0,1.0,-2.69108266602,-0.253785375977,10.0891657959,1.0,0.0,0.0,0.0,1.0,0.0,0.0,0.0,1.0
1479745231820995674,436,1479745231819530472,,6.44466161728,-6.86525821686,-92.4844589233,0.00106599996798,1.0,0.0,0.0,0.0,1.0,0.0,0.0,0.0,1.0,-0.609756112099,-11.4634151459,-5.67073154449,1.0,0.0,0.0,0.0,1.0,0.0,0.0,0.0,1.0,-3.30399829102,-0.143652099609,9.71088193359,1.0,0.0,0.0,0.0,1.0,0.0,0.0,0.0,1.0
1479745231855408967,437,1479745231854181680,,6.21466112137,-6.83296537399,-92.4158477783,0.00109100004192,1.0,0.0,0.0,0.0,1.0,0.0,0.0,0.0,1.0,-2.19512200356,-2.68292689323,4.08536577225,1.0,0.0,0.0,0.0,1.0,0.0,0.0,0.0,1.0,-0.186747729492,-0.555454785156,10.2711251221,1.0,0.0,0.0,0.0,1.0,0.0,0.0,0.0,1.0
1479745231890165382,438,1479745231889052679,,6.19421958923,-6.82760810852,-92.299911499,0.000972000008915,1.0,0.0,0.0,0.0,1.0,0.0,0.0,0.0,1.0,-2.31707310677,4.08536577225,2.25609779358,1.0,0.0,0.0,0.0,1.0,0.0,0.0,0.0,1.0,-0.612915625,-0.248996972656,10.8170031006,1.0,0.0,0.0,0.0,1.0,0.0,0.0,0.0,1.0
1479745231926369709,439,1479745231923980969,,6.32887458801,-6.8238697052,-92.2932662964,0.00720399990678,1.0,0.0,0.0,0.0,1.0,0.0,0.0,0.0,1.0,-0.609756112099,2.86585378647,0.609756112099,1.0,0.0,0.0,0.0,1.0,0.0,0.0,0.0,1.0,-1.2976572998,-0.478840332031,9.91199487305,1.0,0.0,0.0,0.0,1.0,0.0,0.0,0.0,1.0
1479745231959839828,440,1479745231958946811,,6.44579029083,-6.81628656387,-92.1483764648,0.00108199997339,1.0,0.0,0.0,0.0,1.0,0.0,0.0,0.0,1.0,-2.07317066193,-2.25609779358,2.31707310677,1.0,0.0,0.0,0.0,1.0,0.0,0.0,0.0,1.0,-1.26413847656,-0.656011254883,10.1753570557,1.0,0.0,0.0,0.0,1.0,0.0,0.0,0.0,1.0
1479745231994752857,441,1479745231993517758,,6.32870578766,-6.81937074661,-92.0397109985,0.00113099999726,1.0,0.0,0.0,0.0,1.0,0.0,0.0,0.0,1.0,-2.25609779358,-3.41463422775,-0.0609756112099,1.0,0.0,0.0,0.0,1.0,0.0,0.0,0.0,1.0,-0.574608398438,-0.603338854892,10.1418382324,1.0,0.0,0.0,0.0,1.0,0.0,0.0,0.0,1.0
1479745232030163958,442,1479745232028714797,,6.21071004868,-6.81949853897,-91.9427871704,0.000981000019237,1.0,0.0,0.0,0.0,1.0,0.0,0.0,0.0,1.0,-2.19512200356,-3.7804877758,1.8292683363,1.0,0.0,0.0,0.0,1.0,0.0,0.0,0.0,1.0,-1.35032973633,-0.177170922852,10.2711251221,1.0,0.0,0.0,0.0,1.0,0.0,0.0,0.0,1.0
1479745232065684641,443,1479745232064489021,,5.96350574493,-6.83701896667,-91.8273620605,0.00153500004672,1.0,0.0,0.0,0.0,1.0,0.0,0.0,0.0,1.0,-2.5,-3.23170733452,3.29268312454,1.0,0.0,0.0,0.0,1.0,0.0,0.0,0.0,1.0,0.0143652099609,-0.665588061523,9.98382092285,1.0,0.0,0.0,0.0,1.0,0.0,0.0,0.0,1.0
1479745232103875105,444,1479745232102613756,,5.72031164169,-6.82573366165,-91.6741409302,0.00334100006148,1.0,0.0,0.0,0.0,1.0,0.0,0.0,0.0,1.0,-1.8902438879,3.65853667259,0.670731723309,1.0,0.0,0.0,0.0,1.0,0.0,0.0,0.0,1.0,0.512359155273,-0.742202514648,10.0508585693,1.0,0.0,0.0,0.0,1.0,0.0,0.0,0.0,1.0
1479745232137657879,445,1479745232136593040,,5.83200073242,-6.80440187454,-91.6801223755,0.000987999956124,1.0,0.0,0.0,0.0,1.0,0.0,0.0,0.0,1.0,-2.13414645195,9.20731735229,-0.975609779358,1.0,0.0,0.0,0.0,1.0,0.0,0.0,0.0,1.0,0.0909796630859,-0.708683691406,9.89284125977,1.0,0.0,0.0,0.0,1.0,0.0,0.0,0.0,1.0
1479745232172530961,446,1479745232171473153,,6.22934770584,-6.79164838791,-91.6595687866,0.00101999996696,1.0,0.0,0.0,0.0,1.0,0.0,0.0,0.0,1.0,-2.01219511032,14.0243902206,-0.12195122242,1.0,0.0,0.0,0.0,1.0,0.0,0.0,0.0,1.0,-0.76135612793,-0.354341845703,10.2759135254,1.0,0.0,0.0,0.0,1.0,0.0,0.0,0.0,1.0
1479745232207534303,447,1479745232206625921,,6.70964717865,-6.81370401382,-91.7139358521,0.00100299995393,1.0,0.0,0.0,0.0,1.0,0.0,0.0,0.0,1.0,-1.09756100178,17.3780498505,0.487804889679,1.0,0.0,0.0,0.0,1.0,0.0,0.0,0.0,1.0,-1.35511813965,-0.569819995117,10.1466266357,1.0,0.0,0.0,0.0,1.0,0.0,0.0,0.0,1.0
1479745232244349147,448,1479745232243477693,,6.98835372925,-6.85744810104,-91.8819198608,0.00340600009076,1.0,0.0,0.0,0.0,1.0,0.0,0.0,0.0,1.0,-0.487804889679,2.68292689323,-2.5,1.0,0.0,0.0,0.0,1.0,0.0,0.0,0.0,1.0,-1.08217922346,-0.598550451572,10.0748005859,1.0,0.0,0.0,0.0,1.0,0.0,0.0,0.0,1.0
1479745232279310823,449,1479745232276954739,,7.13422060013,-6.85846996307,-91.90599823,0.000965000013821,1.0,0.0,0.0,0.0,1.0,0.0,0.0,0.0,1.0,-1.76829278469,-2.07317066193,-2.98780488968,1.0,0.0,0.0,0.0,1.0,0.0,0.0,0.0,1.0,-1.75734401855,-0.857124194336,9.78749638672,1.0,0.0,0.0,0.0,1.0,0.0,0.0,0.0,1.0
1479745232312880889,450,1479745232311705894,,7.05063390732,-6.84223794937,-91.8921737671,0.00099400000181,1.0,0.0,0.0,0.0,1.0,0.0,0.0,0.0,1.0,-1.95121955872,-0.426829278469,0.548780500889,1.0,0.0,0.0,0.0,1.0,0.0,0.0,0.0,1.0,1.59453830566,-0.560243188477,10.3094323486,1.0,0.0,0.0,0.0,1.0,0.0,0.0,0.0,1.0
1479745232347594753,451,1479745232346401633,,7.07797765732,-6.85215950012,-91.8407821655,0.000965000013821,1.0,0.0,0.0,0.0,1.0,0.0,0.0,0.0,1.0,-2.07317066193,-5.18292713165,-2.80487799644,1.0,0.0,0.0,0.0,1.0,0.0,0.0,0.0,1.0,-1.91536132812,-0.689530078125,9.88805285645,1.0,0.0,0.0,0.0,1.0,0.0,0.0,0.0,1.0
1479745232383077572,452,1479745232381797681,,6.94444704056,-6.83788347244,-91.7477798462,0.00156500004232,1.0,0.0,0.0,0.0,1.0,0.0,0.0,0.0,1.0,-1.8292683363,-8.41463470459,2.01219511032,1.0,0.0,0.0,0.0,1.0,0.0,0.0,0.0,1.0,-0.986411083984,-0.512359155273,10.3333743652,1.0,0.0,0.0,0.0,1.0,0.0,0.0,0.0,1.0
1479745232418024768,453,1479745232416733107,,6.56836128235,-6.84121179581,-91.6061325073,0.00096700002905,1.0,0.0,0.0,0.0,1.0,0.0,0.0,0.0,1.0,-1.58536589146,-13.658536911,2.25609779358,1.0,0.0,0.0,0.0,1.0,0.0,0.0,0.0,1.0,0.0287304199219,-0.718260498047,10.1753570557,1.0,0.0,0.0,0.0,1.0,0.0,0.0,0.0,1.0
1479745232452690195,454,1479745232451536293,,6.10007047653,-6.80290126801,-91.3701705933,0.000957000011113,1.0,0.0,0.0,0.0,1.0,0.0,0.0,0.0,1.0,-2.43902444839,-4.20731735229,2.62195134163,1.0,0.0,0.0,0.0,1.0,0.0,0.0,0.0,1.0,1.20667770978,-0.565031591797,10.1945106689,1.0,0.0,0.0,0.0,1.0,0.0,0.0,0.0,1.0
1479745232487944837,455,1479745232486673384,,5.99314451218,-6.79756975174,-91.272644043,0.00102900003549,1.0,0.0,0.0,0.0,1.0,0.0,0.0,0.0,1.0,-1.64634156227,0.731707334518,-1.09756100178,1.0,0.0,0.0,0.0,1.0,0.0,0.0,0.0,1.0,-1.33596452637,-0.895431420898,9.79228479004,1.0,0.0,0.0,0.0,1.0,0.0,0.0,0.0,1.0
1479745232524112914,456,1479745232521655633,,5.93595695496,-6.78703260422,-91.2569961548,0.00115499994718,1.0,0.0,0.0,0.0,1.0,0.0,0.0,0.0,1.0,-1.8902438879,3.17073178291,4.51219558716,1.0,0.0,0.0,0.0,1.0,0.0,0.0,0.0,1.0,-1.43652099609,-0.737414111328,9.87368764648,1.0,0.0,0.0,0.0,1.0,0.0,0.0,0.0,1.0
1479745232561763953,457,1479745232556121268,,6.04403400421,-6.76536226273,-91.1069717407,0.00096700002905,1.0,0.0,0.0,0.0,1.0,0.0,0.0,0.0,1.0,-2.80487799644,8.90243911743,-1.2804877758,1.0,0.0,0.0,0.0,1.0,0.0,0.0,0.0,1.0,-0.234631762695,-0.430956298828,10.3429511719,1.0,0.0,0.0,0.0,1.0,0.0,0.0,0.0,1.0
1479745232592721583,458,1479745232591506848,,6.24521875381,-6.78384828568,-91.2758712769,0.000960999983363,1.0,0.0,0.0,0.0,1.0,0.0,0.0,0.0,1.0,-1.2195122242,9.5731716156,-2.31707310677,1.0,0.0,0.0,0.0,1.0,0.0,0.0,0.0,1.0,-1.75734401855,-0.555454785156,10.1131078125,1.0,0.0,0.0,0.0,1.0,0.0,0.0,0.0,1.0
1479745232628336693,459,1479745232626639981,,6.60581111908,-6.80194139481,-91.2575073242,0.000965000013821,1.0,0.0,0.0,0.0,1.0,0.0,0.0,0.0,1.0,-2.01219511032,7.43902492523,1.15853655338,1.0,0.0,0.0,0.0,1.0,0.0,0.0,0.0,1.0,-0.665588061523,-0.627280834961,9.97424411621,1.0,0.0,0.0,0.0,1.0,0.0,0.0,0.0,1.0
1479745232663519044,460,1479745232662354101,,6.82422399521,-6.80766296387,-91.2317886353,0.00128600001335,1.0,0.0,0.0,0.0,1.0,0.0,0.0,0.0,1.0,-2.19512200356,4.20731735229,-2.98780488968,1.0,0.0,0.0,0.0,1.0,0.0,0.0,0.0,1.0,-1.22104284668,-0.689530078125,10.0029745361,1.0,0.0,0.0,0.0,1.0,0.0,0.0,0.0,1.0
1479745232699329101,461,1479745232697585098,,6.96692466736,-6.81184196472,-91.2639694214,0.00102800002787,1.0,0.0,0.0,0.0,1.0,0.0,0.0,0.0,1.0,-1.8292683363,2.25609779358,-1.8292683363,1.0,0.0,0.0,0.0,1.0,0.0,0.0,0.0,1.0,-1.11569797363,-0.521935925381,10.2040874756,1.0,0.0,0.0,0.0,1.0,0.0,0.0,0.0,1.0
1479745232733878851,462,1479745232732636825,,7.05459547043,-6.82267522812,-91.25365448,0.001007999992,1.0,0.0,0.0,0.0,1.0,0.0,0.0,0.0,1.0,-1.95121955872,-1.09756100178,-1.09756100178,1.0,0.0,0.0,0.0,1.0,0.0,0.0,0.0,1.0,-1.51313544922,-0.636857641602,10.0508585693,1.0,0.0,0.0,0.0,1.0,0.0,0.0,0.0,1.0
1479745232768566361,463,1479745232767336054,,7.11967468262,-6.81434202194,-91.1590576172,0.000968999986071,1.0,0.0,0.0,0.0,1.0,0.0,0.0,0.0,1.0,-2.74390244484,-3.47560977936,2.80487799644,1.0,0.0,0.0,0.0,1.0,0.0,0.0,0.0,1.0,-2.40856701625,-0.45968671875,10.0891657959,1.0,0.0,0.0,0.0,1.0,0.0,0.0,0.0,1.0
1479745232804235429,464,1479745232803011528,,6.98650455475,-6.82653474808,-90.973197937,0.00192099995911,1.0,0.0,0.0,0.0,1.0,0.0,0.0,0.0,1.0,-1.70731711388,-15.0609760284,1.15853655338,1.0,0.0,0.0,0.0,1.0,0.0,0.0,0.0,1.0,-1.57538469238,-0.814028564453,9.7587659668,1.0,0.0,0.0,0.0,1.0,0.0,0.0,0.0,1.0
1479745232842958391,465,1479745232841646313,,6.56058692932,-6.80262374878,-90.6895980835,0.00310899992473,1.0,0.0,0.0,0.0,1.0,0.0,0.0,0.0,1.0,-2.5,-5.73170757294,8.29268264771,1.0,0.0,0.0,0.0,1.0,0.0,0.0,0.0,1.0,0.225054956055,-0.339976635742,10.4147772217,1.0,0.0,0.0,0.0,1.0,0.0,0.0,0.0,1.0
1479745232876110646,466,1479745232874861797,,6.41017484665,-6.76387023926,-90.371673584,0.00106499996036,1.0,0.0,0.0,0.0,1.0,0.0,0.0,0.0,1.0,-2.98780488968,5.91463422775,6.70731735229,1.0,0.0,0.0,0.0,1.0,0.0,0.0,0.0,1.0,0.61770402832,0.181959326172,10.2088758789,1.0,0.0,0.0,0.0,1.0,0.0,0.0,0.0,1.0
1479745232911688517,467,1479745232910091492,,6.49405384064,-6.77570438385,-90.4134368896,0.00100899999961,1.0,0.0,0.0,0.0,1.0,0.0,0.0,0.0,1.0,-1.2195122242,7.74390268326,-1.34146344662,1.0,0.0,0.0,0.0,1.0,0.0,0.0,0.0,1.0,-2.81558115234,-0.215478149414,10.165780249,1.0,0.0,0.0,0.0,1.0,0.0,0.0,0.0,1.0
1479745232946571807,468,1479745232945457020,,6.56389379501,-6.80974340439,-90.3529663086,0.00100599997677,1.0,0.0,0.0,0.0,1.0,0.0,0.0,0.0,1.0,-1.76829278469,8.71951198578,5.48780488968,1.0,0.0,0.0,0.0,1.0,0.0,0.0,0.0,1.0,-0.627280834961,-0.253785375977,10.0795889893,1.0,0.0,0.0,0.0,1.0,0.0,0.0,0.0,1.0
1479745232984654563,469,1479745232981262129,,6.72224998474,-6.80181312561,-90.2699813843,0.00134700001217,1.0,0.0,0.0,0.0,1.0,0.0,0.0,0.0,1.0,-1.76829278469,13.4146347046,-0.12195122242,1.0,0.0,0.0,0.0,1.0,0.0,0.0,0.0,1.0,-0.277727392578,-0.622492431641,10.0652237793,1.0,0.0,0.0,0.0,1.0,0.0,0.0,0.0,1.0
1479745233016801354,470,1479745233015523651,,7.13637828827,-6.81627130508,-90.3116226196,0.000956000003498,1.0,0.0,0.0,0.0,1.0,0.0,0.0,0.0,1.0,-2.31707310677,13.2926826477,-0.426829278469,1.0,0.0,0.0,0.0,1.0,0.0,0.0,0.0,1.0,-0.837970581055,-0.507570751953,9.95987890625,1.0,0.0,0.0,0.0,1.0,0.0,0.0,0.0,1.0
1479745233052386829,471,1479745233050913919,,7.63416528702,-6.82238864899,-90.2954711914,0.000960999983363,1.0,0.0,0.0,0.0,1.0,0.0,0.0,0.0,1.0,-2.01219511032,17.8048782349,1.2195122242,1.0,0.0,0.0,0.0,1.0,0.0,0.0,0.0,1.0,-0.258573779297,-0.756567724609,10.1562034424,1.0,0.0,0.0,0.0,1.0,0.0,0.0,0.0,1.0
1479745233086773767,472,1479745233085398929,,8.26907253265,-6.84929990768,-90.3293075562,0.00113200000487,1.0,0.0,0.0,0.0,1.0,0.0,0.0,0.0,1.0,-1.58536589146,13.5365858078,-5.60975599289,1.0,0.0,0.0,0.0,1.0,0.0,0.0,0.0,1.0,-2.33195227086,-0.656011254883,9.65821008159,1.0,0.0,0.0,0.0,1.0,0.0,0.0,0.0,1.0
1479745233123330853,473,1479745233120497896,,8.73125457764,-6.90386867523,-90.5516433716,0.00111299997661,1.0,0.0,0.0,0.0,1.0,0.0,0.0,0.0,1.0,-1.2804877758,4.63414621353,-3.23170733452,1.0,0.0,0.0,0.0,1.0,0.0,0.0,0.0,1.0,-2.2170307373,-0.550666381836,10.1753570557,1.0,0.0,0.0,0.0,1.0,0.0,0.0,0.0,1.0
1479745233156931492,474,1479745233155573946,,8.98244667053,-6.92426681519,-90.5048522949,0.00097499997355,1.0,0.0,0.0,0.0,1.0,0.0,0.0,0.0,1.0,-1.76829278469,1.58536589146,2.92682933807,1.0,0.0,0.0,0.0,1.0,0.0,0.0,0.0,1.0,-2.40377861293,-0.512359155273,9.84495722656,1.0,0.0,0.0,0.0,1.0,0.0,0.0,0.0,1.0
1479745233191914938,475,1479745233190510465,,8.9243183136,-6.92401170731,-90.3796615601,0.000959000026342,1.0,0.0,0.0,0.0,1.0,0.0,0.0,0.0,1.0,-1.34146344662,-10.9146347046,1.95121955872,1.0,0.0,0.0,0.0,1.0,0.0,0.0,0.0,1.0,-3.04542451172,-0.699106884766,9.53371159526,1.0,0.0,0.0,0.0,1.0,0.0,0.0,0.0,1.0
1479745233227060258,476,1479745233225881669,,8.59738731384,-6.8483376503,-90.1033248901,0.000972000008915,1.0,0.0,0.0,0.0,1.0,0.0,0.0,0.0,1.0,-2.13414645195,6.15853643417,7.56097555161,1.0,0.0,0.0,0.0,1.0,0.0,0.0,0.0,1.0,-2.14520483363,-0.31124621582,10.1322614258,1.0,0.0,0.0,0.0,1.0,0.0,0.0,0.0,1.0
1479745233264366611,477,1479745233263209064,,8.44416332245,-6.85938024521,-90.0343399048,0.00392600009218,1.0,0.0,0.0,0.0,1.0,0.0,0.0,0.0,1.0,-0.426829278469,-9.87804889679,-3.17073178291,1.0,0.0,0.0,0.0,1.0,0.0,0.0,0.0,1.0,-1.39342536621,-0.220266552734,10.1035310059,1.0,0.0,0.0,0.0,1.0,0.0,0.0,0.0,1.0
1479745233303201239,478,1479745233301654214,,8.28241920471,-6.81350517273,-89.9014053345,0.00107500003651,1.0,0.0,0.0,0.0,1.0,0.0,0.0,0.0,1.0,-2.56097555161,-0.18292683363,3.29268312454,1.0,0.0,0.0,0.0,1.0,0.0,0.0,0.0,1.0,-0.550666381836,-0.689530078125,10.1178962158,1.0,0.0,0.0,0.0,1.0,0.0,0.0,0.0,1.0
1479745233335524019,479,1479745233333497205,,8.15754699707,-6.7979426384,-89.8212890625,0.00102399999741,1.0,0.0,0.0,0.0,1.0,0.0,0.0,0.0,1.0,-2.5,8.17073154449,0.12195122242,1.0,0.0,0.0,0.0,1.0,0.0,0.0,0.0,1.0,2.01112939453,-0.349553442383,10.6302553711,1.0,0.0,0.0,0.0,1.0,0.0,0.0,0.0,1.0
1479745233369098565,480,1479745233368237110,,8.49259376526,-6.80394744873,-89.8403091431,0.0010150000453,1.0,0.0,0.0,0.0,1.0,0.0,0.0,0.0,1.0,-2.74390244484,6.0365858078,-1.70731711388,1.0,0.0,0.0,0.0,1.0,0.0,0.0,0.0,1.0,-1.92972653809,-0.799663354492,9.95030209961,1.0,0.0,0.0,0.0,1.0,0.0,0.0,0.0,1.0
1479745233404855497,481,1479745233403725398,,8.77875804901,-6.81096220016,-89.8116226196,0.00115000002552,1.0,0.0,0.0,0.0,1.0,0.0,0.0,0.0,1.0,-2.13414645195,6.09756088257,0.670731723309,1.0,0.0,0.0,0.0,1.0,0.0,0.0,0.0,1.0,-1.25456166992,-0.545877978516,10.0939541992,1.0,0.0,0.0,0.0,1.0,0.0,0.0,0.0,1.0
1479745233441502530,482,1479745233439114780,,8.89429759979,-6.83190107346,-89.7549743652,0.00103599997237,1.0,0.0,0.0,0.0,1.0,0.0,0.0,0.0,1.0,-1.2804877758,0.18292683363,2.56097555161,1.0,0.0,0.0,0.0,1.0,0.0,0.0,0.0,1.0,-1.4844050293,-0.320823022461,10.2711251221,1.0,0.0,0.0,0.0,1.0,0.0,0.0,0.0,1.0
1479745233475014159,483,1479745233473799737,,8.95185279846,-6.80654525757,-89.573638916,0.000968999986071,1.0,0.0,0.0,0.0,1.0,0.0,0.0,0.0,1.0,-3.59756112099,5.73170757294,1.95121955872,1.0,0.0,0.0,0.0,1.0,0.0,0.0,0.0,1.0,-0.632069238281,-0.359130249023,10.5632177246,1.0,0.0,0.0,0.0,1.0,0.0,0.0,0.0,1.0
1479745233510265937,484,1479745233509121880,,9.01965332031,-6.86583471298,-89.6767501831,0.000973000016529,1.0,0.0,0.0,0.0,1.0,0.0,0.0,0.0,1.0,-0.731707334518,0.853658556938,-2.19512200356,1.0,0.0,0.0,0.0,1.0,0.0,0.0,0.0,1.0,-2.31279880371,-0.713472094727,10.2663367187,1.0,0.0,0.0,0.0,1.0,0.0,0.0,0.0,1.0
1479745233544955374,485,1479745233543704234,,9.11441040039,-6.84060811996,-89.513458252,0.00115300004836,1.0,0.0,0.0,0.0,1.0,0.0,0.0,0.0,1.0,-2.92682933807,3.59756112099,2.25609779358,1.0,0.0,0.0,0.0,1.0,0.0,0.0,0.0,1.0,0.392649072266,-0.61770402832,10.5057568848,1.0,0.0,0.0,0.0,1.0,0.0,0.0,0.0,1.0
1479745233580296788,486,1479745233579044918,,9.1169757843,-6.85148572922,-89.5161514282,0.00103100005072,1.0,0.0,0.0,0.0,1.0,0.0,0.0,0.0,1.0,-2.62195134163,13.7804880142,-0.853658556938,1.0,0.0,0.0,0.0,1.0,0.0,0.0,0.0,1.0,-1.65678754883,-0.478840332031,10.1753570557,1.0,0.0,0.0,0.0,1.0,0.0,0.0,0.0,1.0
1479745233615550337,487,1479745233614319821,,9.52664852142,-6.87147474289,-89.4775695801,0.000968999986071,1.0,0.0,0.0,0.0,1.0,0.0,0.0,0.0,1.0,-2.68292689323,5.73170757294,0.487804889679,1.0,0.0,0.0,0.0,1.0,0.0,0.0,0.0,1.0,-1.09654436035,-0.660799658203,9.94551369629,1.0,0.0,0.0,0.0,1.0,0.0,0.0,0.0,1.0
1479745233650470606,488,1479745233649301444,,9.7494802475,-6.90354585648,-89.4335327148,0.000992999994196,1.0,0.0,0.0,0.0,1.0,0.0,0.0,0.0,1.0,-1.76829278469,4.08536577225,1.03658533096,1.0,0.0,0.0,0.0,1.0,0.0,0.0,0.0,1.0,-1.5562310791,-0.689530078125,10.2663367187,1.0,0.0,0.0,0.0,1.0,0.0,0.0,0.0,1.0
1479745233685843582,489,1479745233684104006,,9.80960464478,-6.89959573746,-89.3510971069,0.00115799997002,1.0,0.0,0.0,0.0,1.0,0.0,0.0,0.0,1.0,-1.8902438879,-0.853658556938,0.487804889679,1.0,0.0,0.0,0.0,1.0,0.0,0.0,0.0,1.0,-1.81959326172,-0.354341845703,9.94551369629,1.0,0.0,0.0,0.0,1.0,0.0,0.0,0.0,1.0
1479745233721822284,490,1479745233718791463,,9.79225730896,-6.89770078659,-89.2792739868,0.00102800002787,1.0,0.0,0.0,0.0,1.0,0.0,0.0,0.0,1.0,-1.52439022064,0.487804889679,1.58536589146,1.0,0.0,0.0,0.0,1.0,0.0,0.0,0.0,1.0,-1.41257897949,-0.407014282227,9.99339772949,1.0,0.0,0.0,0.0,1.0,0.0,0.0,0.0,1.0
